mag_x,mag_y,mag_z,gyro_x,gyro_y,gyro_z,acc_x,acc_y,acc_z,lin_x,lin_y,lin_z
17.205810546875,-16.986083984375,-12.64495849609375,-9.1552734375E-4,-0.0012054443359375,-9.307861328125E-4,0.193328857421875,-0.212005615234375,9.892227172851563,0.03770880401134491,-0.009452193975448608,0.02979564666748047
16.7327880859375,-18.19610595703125,-12.9150390625,-9.1552734375E-4,-0.0033416748046875,0.0012054443359375,0.1957244873046875,-0.252716064453125,9.885055541992188,0.010985791683197021,-0.02255438268184662,0.014654159545898438
17.36907958984375,-17.4163818359375,-11.56158447265625,0.001220703125,-0.0033416748046875,-0.0019989013671875,0.236419677734375,-0.2096099853515625,9.916168212890625,-0.0041110217571258545,-0.0011689960956573486,0.0720682144165039
17.52471923828125,-16.52069091796875,-11.8927001953125,1.52587890625E-4,-0.0022735595703125,0.0012054443359375,0.21966552734375,-0.22637939453125,9.9425048828125,-0.00922006368637085,-0.019860729575157166,0.05050373077392578
17.51556396484375,-16.99676513671875,-13.568115234375,0.001220703125,-0.0012054443359375,-9.307861328125E-4,0.20050048828125,-0.212005615234375,9.90899658203125,0.01926039159297943,-0.003282800316810608,0.02064228057861328
19.4122314453125,-17.25616455078125,-12.6678466796875,-9.1552734375E-4,-1.373291015625E-4,-9.307861328125E-4,0.2172698974609375,-0.221588134765625,9.873077392578125,-6.946921348571777E-5,0.0016247928142547607,0.03901386260986328
18.7835693359375,-16.95709228515625,-12.20703125,-9.1552734375E-4,-1.373291015625E-4,-9.307861328125E-4,0.2172698974609375,-0.2096099853515625,9.92095947265625,-0.0073577165603637695,0.022782906889915466,0.05869579315185547
17.82379150390625,-17.4652099609375,-14.94140625,1.52587890625E-4,-1.373291015625E-4,1.373291015625E-4,0.20050048828125,-0.204833984375,9.880264282226563,0.009314730763435364,0.005608007311820984,0.041103363037109375
19.09637451171875,-16.2109375,-12.689208984375,1.52587890625E-4,-0.0033416748046875,-9.307861328125E-4,0.2172698974609375,-0.221588134765625,9.916168212890625,-0.014765128493309021,0.04327672719955444,0.027975082397460938
19.09332275390625,-15.4693603515625,-13.1683349609375,-0.001983642578125,-0.0022735595703125,-0.0019989013671875,0.20050048828125,-0.1737060546875,9.92095947265625,-0.002919897437095642,-0.007459357380867004,0.02918529510498047
18.46923828125,-16.80908203125,-12.05291748046875,-9.1552734375E-4,-0.0022735595703125,1.373291015625E-4,0.2124786376953125,-0.2503204345703125,9.885055541992188,0.006387963891029358,-0.01149529218673706,0.012075424194335938
18.77593994140625,-16.52984619140625,-13.59710693359375,1.52587890625E-4,9.307861328125E-4,0.0012054443359375,0.21966552734375,-0.2455291748046875,9.887451171875,-0.012802258133888245,-0.022642850875854492,0.10612010955810547
16.8914794921875,-17.59033203125,-12.6251220703125,1.52587890625E-4,-0.0033416748046875,1.373291015625E-4,0.183746337890625,-0.2096099853515625,9.90899658203125,-0.02180609107017517,-0.008250713348388672,-0.013866424560546875
17.04864501953125,-17.1356201171875,-12.4847412109375,0.001220703125,-0.0012054443359375,-9.307861328125E-4,0.205291748046875,-0.212005615234375,9.918563842773438,-0.016819104552268982,0.010553404688835144,0.0069942474365234375
15.62652587890625,-16.41845703125,-13.250732421875,1.52587890625E-4,0.001983642578125,1.373291015625E-4,0.2076873779296875,-0.1880645751953125,9.863510131835938,-0.01882334053516388,0.0029374659061431885,0.02359485626220703
17.9931640625,-16.97540283203125,-12.6556396484375,0.0022735595703125,-0.0012054443359375,1.373291015625E-4,0.1981201171875,-0.2096099853515625,9.892227172851563,-0.004404306411743164,-0.021000832319259644,-0.014727592468261719
17.9931640625,-17.5750732421875,-12.640380859375,0.001220703125,-1.373291015625E-4,1.373291015625E-4,0.2100830078125,-0.216796875,9.897018432617188,0.014580994844436646,0.009862124919891357,0.0088348388671875
17.83905029296875,-17.86651611328125,-12.017822265625,-9.1552734375E-4,-0.0022735595703125,1.373291015625E-4,0.2028961181640625,-0.1880645751953125,9.8994140625,0.004721507430076599,0.025943994522094727,0.03447246551513672
17.35992431640625,-16.84417724609375,-13.262939453125,-9.1552734375E-4,-0.0022735595703125,-9.307861328125E-4,0.1909332275390625,-0.2024383544921875,9.925750732421875,-0.017042085528373718,0.013752728700637817,0.0481109619140625
16.88995361328125,-16.99066162109375,-12.640380859375,-9.1552734375E-4,9.307861328125E-4,1.373291015625E-4,0.2076873779296875,-0.2144012451171875,9.885055541992188,-3.2226741313934326E-4,0.0017338544130325317,0.006941795349121094
19.2474365234375,-16.07666015625,-13.76953125,1.52587890625E-4,-0.0022735595703125,1.373291015625E-4,0.2100830078125,-0.2455291748046875,9.918563842773438,0.002069130539894104,-0.029395774006843567,0.039569854736328125
16.90216064453125,-16.50543212890625,-10.504150390625,1.52587890625E-4,-0.0012054443359375,-9.307861328125E-4,0.1957244873046875,-0.2239837646484375,9.911392211914063,-0.011715412139892578,-0.007876336574554443,0.03200244903564453
17.9962158203125,-17.26837158203125,-12.188720703125,1.52587890625E-4,-0.0012054443359375,-9.307861328125E-4,0.2220611572265625,-0.23834228515625,9.863510131835938,0.01393185555934906,-0.021772220730781555,-0.015845298767089844
16.89453125,-17.27752685546875,-11.865234375,0.001220703125,-1.373291015625E-4,-9.307861328125E-4,0.214874267578125,-0.2239837646484375,9.8563232421875,0.006333395838737488,-0.007478177547454834,-0.023252487182617188
17.8314208984375,-18.49365234375,-13.68865966796875,0.001220703125,-0.0022735595703125,-9.307861328125E-4,0.2172698974609375,-0.22637939453125,9.887451171875,0.00825364887714386,-0.009567782282829285,0.0080108642578125
18.29681396484375,-17.00592041015625,-14.80560302734375,1.52587890625E-4,-0.0012054443359375,-0.0019989013671875,0.2172698974609375,-0.2407379150390625,9.904205322265625,0.007989317178726196,-0.023409515619277954,0.02422046661376953
18.304443359375,-18.3349609375,-13.5467529296875,1.52587890625E-4,-0.0012054443359375,-9.307861328125E-4,0.193328857421875,-0.2359466552734375,9.865890502929688,-0.015941545367240906,-0.018244028091430664,-0.013624191284179688
16.87774658203125,-17.633056640625,-15.2313232421875,0.001220703125,-0.0012054443359375,-9.307861328125E-4,0.2292327880859375,-0.2287750244140625,9.949691772460938,0.0193912535905838,-0.010991171002388,0.06937313079833984
17.3614501953125,-17.88787841796875,-12.9302978515625,0.0022735595703125,9.307861328125E-4,-0.0019989013671875,0.2172698974609375,-0.1832733154296875,9.887451171875,0.007460236549377441,0.03384248912334442,0.007105827331542969
18.46466064453125,-17.1234130859375,-12.96539306640625,1.52587890625E-4,-0.0033416748046875,-9.307861328125E-4,0.21966552734375,-0.1928558349609375,9.90899658203125,0.009451299905776978,0.023717403411865234,0.02829742431640625
17.35076904296875,-16.87164306640625,-14.9505615234375,0.001220703125,-0.0012054443359375,0.0012054443359375,0.23162841796875,-0.22637939453125,9.90899658203125,0.020971983671188354,-0.01006479561328888,0.027757644653320313
17.83599853515625,-16.82586669921875,-12.5030517578125,-0.001983642578125,-1.373291015625E-4,0.0012054443359375,0.2292327880859375,-0.2287750244140625,9.9305419921875,0.018256664276123047,-0.012115567922592163,0.04865741729736328
18.14117431640625,-17.4560546875,-14.6392822265625,1.52587890625E-4,-0.0022735595703125,1.373291015625E-4,0.226837158203125,-0.204833984375,9.873077392578125,0.01564498245716095,0.011570960283279419,-0.008882522583007813
17.5140380859375,-17.00286865234375,-13.87481689453125,0.0022735595703125,-1.373291015625E-4,1.373291015625E-4,0.2028961181640625,-0.2072296142578125,9.923355102539063,-0.008266657590866089,0.008715644478797913,0.04110908508300781
17.5201416015625,-15.9332275390625,-12.67547607421875,1.52587890625E-4,-0.0012054443359375,-9.307861328125E-4,0.1861419677734375,-0.1928558349609375,9.894622802734375,-0.024661540985107422,0.022912397980690002,0.012002944946289063
17.83447265625,-15.78369140625,-12.98980712890625,1.52587890625E-4,9.307861328125E-4,-0.0019989013671875,0.2220611572265625,-0.204833984375,9.880264282226563,0.011103853583335876,0.01063084602355957,-0.002178192138671875
18.46923828125,-16.3604736328125,-12.0635986328125,0.0022735595703125,-1.373291015625E-4,-0.0019989013671875,0.2028961181640625,-0.200042724609375,9.870681762695313,-0.008015945553779602,0.01512359082698822,-0.012001991271972656
17.1875,-17.04254150390625,-16.01715087890625,0.001220703125,-0.0012054443359375,1.373291015625E-4,0.2124786376953125,-0.216796875,9.916168212890625,0.0014735609292984009,-0.001912921667098999,0.03332233428955078
17.50946044921875,-16.5679931640625,-14.80560302734375,-9.1552734375E-4,-0.0012054443359375,-9.307861328125E-4,0.2028961181640625,-0.200042724609375,9.911392211914063,-0.007962644100189209,0.014741003513336182,0.02809429168701172
17.3553466796875,-15.8111572265625,-14.208984375,-0.0030517578125,-0.0033416748046875,-9.307861328125E-4,0.1981201171875,-0.1928558349609375,9.865890502929688,-0.012988999485969543,0.021553486585617065,-0.017426490783691406
17.3553466796875,-18.20831298828125,-14.14947509765625,0.001220703125,-0.0022735595703125,1.373291015625E-4,0.21966552734375,-0.2096099853515625,9.918563842773438,0.008238926529884338,0.0047568678855896,0.034882545471191406
17.8253173828125,-17.90924072265625,-14.6240234375,1.52587890625E-4,-0.0012054443359375,-0.0030670166015625,0.226837158203125,-0.2191925048828125,9.892227172851563,0.014843642711639404,-0.0048216283321380615,0.008429527282714844
17.03948974609375,-16.11480712890625,-14.19830322265625,1.52587890625E-4,-0.0022735595703125,0.0012054443359375,0.214874267578125,-0.1976470947265625,9.885055541992188,0.0025334954261779785,0.01658894121646881,0.0010824203491210938
17.205810546875,-16.5374755859375,-12.6556396484375,1.52587890625E-4,-0.0022735595703125,1.373291015625E-4,0.2100830078125,-0.2191925048828125,9.928146362304688,-0.002567186951637268,-0.0049953460693359375,0.04380035400390625
17.3614501953125,-17.138671875,-12.95013427734375,0.001220703125,-0.0012054443359375,-9.307861328125E-4,0.2172698974609375,-0.168914794921875,9.8994140625,0.004406064748764038,0.0445990115404129,0.014698028564453125
17.98553466796875,-17.303466796875,-14.3341064453125,-9.1552734375E-4,-1.373291015625E-4,0.0012054443359375,0.1813507080078125,-0.2096099853515625,9.923355102539063,-0.031193330883979797,0.003868699073791504,0.03813934326171875
18.15032958984375,-18.47686767578125,-12.92724609375,1.52587890625E-4,-0.0012054443359375,-0.0030670166015625,0.2172698974609375,-0.22637939453125,9.885055541992188,0.004535660147666931,-0.012744039297103882,-3.1280517578125E-4
17.364501953125,-17.13104248046875,-12.48931884765625,1.52587890625E-4,-1.373291015625E-4,-0.0019989013671875,0.2124786376953125,-0.2072296142578125,9.8994140625,0.004512205719947815,-0.010269060730934143,0.008829116821289063
16.10107421875,-18.35784912109375,-13.055419921875,1.52587890625E-4,-1.373291015625E-4,-0.0019989013671875,0.2292327880859375,-0.2191925048828125,9.897018432617188,-0.02417077124118805,-0.012583062052726746,-0.012703895568847656
17.0501708984375,-17.88482666015625,-12.4664306640625,0.001220703125,0.0030517578125,-9.307861328125E-4,0.2100830078125,-0.2096099853515625,9.882659912109375,-1.5422701835632324E-5,0.001672789454460144,-0.03156852722167969
17.36907958984375,-17.4163818359375,-11.56158447265625,0.001220703125,-0.0033416748046875,1.373291015625E-4,0.205291748046875,-0.2096099853515625,9.887451171875,0.023666709661483765,0.006345078349113464,0.07077312469482422
16.729736328125,-17.901611328125,-13.22784423828125,1.52587890625E-4,-1.373291015625E-4,0.0012054443359375,0.2028961181640625,-0.2455291748046875,9.911392211914063,-0.014543980360031128,0.0017554163932800293,-0.0012493133544921875
16.8914794921875,-17.291259765625,-12.63275146484375,1.52587890625E-4,-0.0033416748046875,-9.307861328125E-4,0.2028961181640625,-0.2191925048828125,9.882659912109375,-0.019262835383415222,-0.0030329227447509766,0.0011701583862304688
17.97943115234375,-16.2689208984375,-15.2801513671875,-9.1552734375E-4,-0.0012054443359375,1.373291015625E-4,0.1669921875,-0.2144012451171875,9.880264282226563,-0.02607235312461853,-0.029032021760940552,-0.017787933349609375
16.8792724609375,-18.0755615234375,-14.75982666015625,-9.1552734375E-4,-0.0022735595703125,0.0012054443359375,0.2220611572265625,-0.1928558349609375,9.875473022460938,-0.012019380927085876,0.025733351707458496,0.04181957244873047
17.0440673828125,-16.400146484375,-13.27056884765625,1.52587890625E-4,-0.0033416748046875,0.0012054443359375,0.21966552734375,-0.1976470947265625,9.913787841796875,-0.0026427805423736572,-0.0031207501888275146,0.015130996704101563
17.83905029296875,-17.1173095703125,-12.0361328125,0.001220703125,9.307861328125E-4,-9.307861328125E-4,0.226837158203125,-0.221588134765625,9.913787841796875,-0.014562621712684631,0.02312280237674713,-0.011336326599121094
17.83294677734375,-16.387939453125,-13.28125,1.52587890625E-4,9.307861328125E-4,-9.307861328125E-4,0.2100830078125,-0.1808929443359375,9.8994140625,-0.01443566381931305,-0.036667853593826294,0.007645606994628906
16.88385009765625,-16.5618896484375,-13.87786865234375,0.001220703125,-0.00439453125,1.373291015625E-4,0.2100830078125,-0.2455291748046875,9.849136352539063,0.0068002790212631226,0.00420612096786499,-0.00634002685546875
17.51861572265625,-17.28973388671875,-13.1011962890625,-9.1552734375E-4,9.307861328125E-4,-0.0030670166015625,0.2124786376953125,-0.1880645751953125,9.9305419921875,-3.964453935623169E-4,0.004095524549484253,0.03370952606201172
18.1427001953125,-16.09954833984375,-14.21356201171875,1.52587890625E-4,-1.373291015625E-4,1.373291015625E-4,0.214874267578125,-0.22637939453125,9.892227172851563,0.020889654755592346,-0.02201908826828003,0.03576374053955078
16.73431396484375,-17.4407958984375,-12.4725341796875,0.001220703125,-0.0033416748046875,-9.307861328125E-4,0.236419677734375,-0.2287750244140625,9.851531982421875,0.0036874860525131226,-0.014720067381858826,0.035765647888183594
18.1427001953125,-17.14935302734375,-14.1876220703125,0.001220703125,-1.373291015625E-4,-9.307861328125E-4,0.2388153076171875,-0.231170654296875,9.875473022460938,0.024849116802215576,0.011540338397026062,-0.009542465209960938
17.98858642578125,-18.04046630859375,-13.5498046875,-9.1552734375E-4,-1.373291015625E-4,-9.307861328125E-4,0.21966552734375,-0.2096099853515625,9.873077392578125,-0.006340503692626953,-0.014674082398414612,0.012022972106933594
19.25048828125,-16.36962890625,-13.30108642578125,1.52587890625E-4,-0.0022735595703125,0.0012054443359375,0.2100830078125,-0.2239837646484375,9.8994140625,-0.003994807600975037,0.011633738875389099,0.0070743560791015625
16.7327880859375,-18.4967041015625,-12.90740966796875,1.52587890625E-4,-0.0022735595703125,1.373291015625E-4,0.2220611572265625,-0.1880645751953125,9.901809692382813,0.005202502012252808,0.006554916501045227,0.040146827697753906
16.88995361328125,-16.241455078125,-12.65869140625,-9.1552734375E-4,-0.0012054443359375,1.373291015625E-4,0.1957244873046875,-0.2191925048828125,9.885055541992188,-0.018442049622535706,0.025586530566215515,0.013720512390136719
15.7806396484375,-16.27655029296875,-13.86871337890625,1.52587890625E-4,0.001983642578125,1.373291015625E-4,0.2124786376953125,-0.2191925048828125,9.90899658203125,-0.00394575297832489,-0.005360588431358337,-0.015059471130371094
17.987060546875,-18.0450439453125,-13.85498046875,-9.1552734375E-4,-0.0022735595703125,1.373291015625E-4,0.21966552734375,-0.190460205078125,9.863510131835938,0.005334630608558655,0.023130759596824646,-0.024231910705566406
17.1966552734375,-17.31414794921875,-14.32342529296875,-9.1552734375E-4,-1.373291015625E-4,1.373291015625E-4,0.205291748046875,-0.2287750244140625,9.885055541992188,-0.009126394987106323,-0.01497282087802887,-0.0029783248901367188
17.205810546875,-16.986083984375,-12.64495849609375,1.52587890625E-4,-0.0022735595703125,-9.307861328125E-4,0.226837158203125,-0.2239837646484375,9.894622802734375,0.012264147400856018,-0.010148048400878906,0.006402015686035156
17.523193359375,-17.57354736328125,-12.1734619140625,-9.1552734375E-4,-0.0012054443359375,1.373291015625E-4,0.2028961181640625,-0.2287750244140625,9.882659912109375,-0.011640623211860657,-0.014709949493408203,-0.005759239196777344
17.205810546875,-16.986083984375,-12.64495849609375,0.001220703125,-0.0012054443359375,-9.307861328125E-4,0.2076873779296875,-0.2096099853515625,9.851531982421875,-0.006659984588623047,0.004350423812866211,-0.03627967834472656
17.82379150390625,-15.36712646484375,-14.9932861328125,1.52587890625E-4,-0.0022735595703125,0.00225830078125,0.2028961181640625,-0.231170654296875,9.875473022460938,-0.011643722653388977,-0.01710619032382965,-0.012389183044433594
17.2027587890625,-15.49530029296875,-13.140869140625,1.52587890625E-4,-0.0022735595703125,0.0012054443359375,0.2076873779296875,-0.2287750244140625,9.8994140625,-0.006720513105392456,-0.014769643545150757,0.011383056640625
17.3583984375,-17.901611328125,-13.69781494140625,0.001220703125,-0.0033416748046875,1.373291015625E-4,0.226837158203125,-0.168914794921875,9.880264282226563,0.011950954794883728,0.044628724455833435,-0.0076751708984375
17.9962158203125,-17.56744384765625,-12.18109130859375,1.52587890625E-4,-1.373291015625E-4,-9.307861328125E-4,0.2220611572265625,-0.212005615234375,9.901809692382813,0.007108092308044434,0.0011791884899139404,0.014234542846679688
16.74346923828125,-17.11273193359375,-10.7940673828125,1.52587890625E-4,-0.0022735595703125,-0.0019989013671875,0.18853759765625,-0.212005615234375,9.887451171875,-0.02661876380443573,0.0010509341955184937,-2.1457672119140625E-4
17.0440673828125,-16.400146484375,-13.27056884765625,-9.1552734375E-4,-0.0012054443359375,-0.0030670166015625,0.2220611572265625,-0.1856689453125,9.8994140625,0.00702957808971405,0.027460575103759766,0.011218070983886719
16.0980224609375,-17.0166015625,-13.54827880859375,0.001220703125,-0.0033416748046875,-9.307861328125E-4,0.236419677734375,-0.22637939453125,9.875473022460938,0.020778656005859375,-0.013474687933921814,-0.012508392333984375
17.51251220703125,-17.3095703125,-14.3280029296875,1.52587890625E-4,-0.0033416748046875,1.373291015625E-4,0.2076873779296875,-0.22637939453125,9.873077392578125,-0.008270695805549622,-0.013522729277610779,-0.014373779296875
17.51556396484375,-16.24755859375,-13.58795166015625,-9.1552734375E-4,-0.00653076171875,-9.307861328125E-4,0.2124786376953125,-0.2551116943359375,9.88983154296875,-0.0038792937994003296,-0.04164889454841614,0.0023279190063476563
18.30596923828125,-16.52984619140625,-13.1317138671875,0.001220703125,-0.0012054443359375,1.373291015625E-4,0.2292327880859375,-0.2239837646484375,9.882659912109375,0.012579724192619324,-0.01022389531135559,-0.00513458251953125
17.8253173828125,-16.41082763671875,-14.66064453125,0.001220703125,-0.0012054443359375,1.373291015625E-4,0.1957244873046875,-0.2335662841796875,9.861114501953125,-0.020924359560012817,-0.019565165042877197,-0.026712417602539063
17.19970703125,-17.0074462890625,-13.8702392578125,0.001220703125,0.001983642578125,-9.307861328125E-4,0.1909332275390625,-0.2239837646484375,9.94012451171875,-0.025268524885177612,-0.009885430335998535,0.05199909210205078
16.888427734375,-17.59796142578125,-13.08441162109375,-9.1552734375E-4,-0.0012054443359375,1.373291015625E-4,0.2124786376953125,-0.1928558349609375,9.92095947265625,-0.003706634044647217,0.02104632556438446,0.032627105712890625
17.52166748046875,-17.2821044921875,-12.64190673828125,0.0022735595703125,-0.0012054443359375,-0.0019989013671875,0.2172698974609375,-0.243133544921875,9.90899658203125,9.63255763053894E-4,-0.028997302055358887,0.020104408264160156
16.424560546875,-16.22772216796875,-11.42578125,1.52587890625E-4,-0.0012054443359375,1.373291015625E-4,0.214874267578125,-0.19525146484375,9.882659912109375,-0.0014924108982086182,0.018467038869857788,-0.006070137023925781
17.8253173828125,-17.46063232421875,-14.63470458984375,0.0022735595703125,-0.0022735595703125,1.373291015625E-4,0.1909332275390625,-0.200042724609375,9.918563842773438,-0.025230571627616882,0.01313367486000061,0.029439926147460938
17.3614501953125,-17.88787841796875,-12.9302978515625,-0.001983642578125,-0.0012054443359375,-0.0019989013671875,0.226837158203125,-0.2144012451171875,9.897018432617188,0.010517045855522156,-0.0011475235223770142,0.007450103759765625
17.50946044921875,-16.2689208984375,-14.813232421875,1.52587890625E-4,-0.0012054443359375,0.0012054443359375,0.205291748046875,-0.221588134765625,9.87786865234375,-0.011197760701179504,-0.008197635412216187,-0.011838912963867188
17.0379638671875,-16.4215087890625,-14.64996337890625,-9.1552734375E-4,-0.0012054443359375,-9.307861328125E-4,0.2388153076171875,-0.2551116943359375,9.885055541992188,0.021981731057167053,-0.04120472073554993,-0.0049285888671875
18.45703125,-15.7958984375,-14.22576904296875,0.0022735595703125,-0.0022735595703125,0.0012054443359375,0.2100830078125,-0.200042724609375,9.90899658203125,-0.006774872541427612,0.013706669211387634,0.018540382385253906
17.83447265625,-17.132568359375,-12.95623779296875,-9.1552734375E-4,0.001983642578125,-9.307861328125E-4,0.193328857421875,-0.221588134765625,9.90899658203125,-0.02322833240032196,-0.007874250411987305,0.018309593200683594
17.82989501953125,-16.39556884765625,-13.74053955078125,1.52587890625E-4,-0.0022735595703125,0.0012054443359375,0.2172698974609375,-0.216796875,9.887451171875,6.566047668457031E-4,-0.0030055344104766846,-0.0034389495849609375
17.9962158203125,-18.017578125,-12.16888427734375,1.52587890625E-4,9.307861328125E-4,-0.0019989013671875,0.2100830078125,-0.231170654296875,9.906600952148438,-0.00605444610118866,-0.017323046922683716,0.01558685302734375
17.83447265625,-15.78369140625,-12.98980712890625,-0.001983642578125,-0.0033416748046875,1.373291015625E-4,0.214874267578125,-0.2407379150390625,9.8994140625,-0.0015619099140167236,-0.026423275470733643,0.008288383483886719
17.9840087890625,-16.253662109375,-14.36004638671875,0.001220703125,-1.373291015625E-4,1.373291015625E-4,0.21966552734375,-0.1880645751953125,9.906600952148438,0.003134995698928833,0.025774851441383362,0.01541900634765625
18.145751953125,-17.1417236328125,-13.726806640625,1.52587890625E-4,-0.0012054443359375,-9.307861328125E-4,0.193328857421875,-0.221588134765625,9.911392211914063,0.00783054530620575,0.011208921670913696,0.0026493072509765625
18.14727783203125,-17.13409423828125,-13.26751708984375,1.52587890625E-4,-0.0022735595703125,-9.307861328125E-4,0.2028961181640625,-0.212005615234375,9.92095947265625,-0.015998512506484985,0.011084064841270447,0.0023899078369140625
16.88232421875,-17.6177978515625,-14.31121826171875,-9.1552734375E-4,-0.0012054443359375,-9.307861328125E-4,0.205291748046875,-0.2551116943359375,9.947296142578125,-0.0016878992319107056,-0.02180582284927368,0.04466724395751953
16.8853759765625,-17.30499267578125,-13.5528564453125,1.52587890625E-4,-0.0012054443359375,1.373291015625E-4,0.205291748046875,-0.221588134765625,9.87786865234375,-0.006397157907485962,-0.016840860247612,-0.005436897277832031
15.77911376953125,-17.333984375,-14.3035888671875,1.52587890625E-4,-0.0033416748046875,-9.307861328125E-4,0.2100830078125,-0.2455291748046875,9.873077392578125,-0.018478810787200928,0.0025470107793807983,0.006642341613769531
16.729736328125,-15.35491943359375,-13.29193115234375,0.001220703125,-0.0012054443359375,-9.307861328125E-4,0.2292327880859375,-0.2072296142578125,9.92095947265625,0.04085001349449158,0.007132932543754578,0.030096054077148438
16.8914794921875,-18.04046630859375,-12.61444091796875,0.0022735595703125,-0.0012054443359375,1.373291015625E-4,0.2388153076171875,-0.1880645751953125,9.880264282226563,0.01642008125782013,-3.741532564163208E-4,0.02046680450439453
17.04254150390625,-17.4560546875,-13.70391845703125,-9.1552734375E-4,-1.373291015625E-4,1.373291015625E-4,0.2340240478515625,-0.231170654296875,9.911392211914063,0.013759970664978027,0.0021850764751434326,0.02725982666015625
17.82989501953125,-15.79742431640625,-13.75579833984375,-9.1552734375E-4,-1.373291015625E-4,1.373291015625E-4,0.2100830078125,-0.231170654296875,9.935333251953125,-0.0052957683801651,-0.009484663605690002,-0.023168563842773438
17.20123291015625,-18.0511474609375,-13.53759765625,1.52587890625E-4,9.307861328125E-4,0.0012054443359375,0.178955078125,-0.2024383544921875,9.882659912109375,-0.023931056261062622,-0.002441883087158203,0.0103607177734375
16.412353515625,-17.01812744140625,-13.85955810546875,1.52587890625E-4,-0.0022735595703125,-9.307861328125E-4,0.2100830078125,-0.2144012451171875,9.861114501953125,-0.011929064989089966,-0.031033888459205627,0.022408485412597656
16.10260009765625,-17.0013427734375,-12.628173828125,1.52587890625E-4,-0.0012054443359375,1.373291015625E-4,0.2220611572265625,-0.23834228515625,9.887451171875,-0.021424561738967896,0.016939476132392883,-0.0014657974243164063
18.29986572265625,-18.048095703125,-14.32037353515625,1.52587890625E-4,-1.373291015625E-4,-9.307861328125E-4,0.2388153076171875,-0.1832733154296875,9.894622802734375,0.025991350412368774,-4.038214683532715E-5,0.031785011291503906
16.09954833984375,-15.960693359375,-13.11492919921875,1.52587890625E-4,-0.0022735595703125,1.373291015625E-4,0.193328857421875,-0.204833984375,9.901809692382813,-0.024052366614341736,-8.296966552734375E-5,0.04807281494140625
16.888427734375,-18.34716796875,-13.06610107421875,1.52587890625E-4,-0.0012054443359375,0.0012054443359375,0.2220611572265625,-0.1976470947265625,9.925750732421875,-0.0025862157344818115,0.009256422519683838,0.009433746337890625
16.25823974609375,-16.10565185546875,-12.95928955078125,1.52587890625E-4,-1.373291015625E-4,0.0012054443359375,0.2412109375,-0.22637939453125,9.937728881835938,0.02086704969406128,0.002156764268875122,-0.012363433837890625
17.04864501953125,-17.1356201171875,-12.4847412109375,0.001220703125,9.307861328125E-4,1.373291015625E-4,0.224456787109375,-0.1928558349609375,9.906600952148438,-0.010242834687232971,0.009058564901351929,0.020873069763183594
17.52471923828125,-15.9210205078125,-11.907958984375,0.001220703125,-0.0022735595703125,1.373291015625E-4,0.2076873779296875,-0.204833984375,9.916168212890625,-0.010267630219459534,0.004187792539596558,-0.012529373168945313
18.30596923828125,-17.578125,-13.104248046875,0.001220703125,-0.0012054443359375,-9.307861328125E-4,0.2076873779296875,-0.2096099853515625,9.882659912109375,0.015875309705734253,0.01595550775527954,0.01844310760498047
17.828369140625,-16.85333251953125,-14.190673828125,0.001220703125,-0.0033416748046875,-9.307861328125E-4,0.2603607177734375,-0.2287750244140625,9.935333251953125,0.03180180490016937,0.0016405284404754639,-0.01528167724609375
17.3736572265625,-18.45245361328125,-10.7696533203125,-0.001983642578125,-1.373291015625E-4,-0.0019989013671875,0.226837158203125,-0.221588134765625,9.904205322265625,0.0053383708000183105,-0.0077238380908966064,0.029883384704589844
16.89453125,-16.5283203125,-11.88507080078125,1.52587890625E-4,-0.0022735595703125,0.0012054443359375,0.226837158203125,-0.2144012451171875,9.873077392578125,0.005064323544502258,0.011323019862174988,-0.01528167724609375
17.35687255859375,-16.4031982421875,-13.73443603515625,0.0022735595703125,-0.0012054443359375,1.373291015625E-4,0.2292327880859375,-0.2024383544921875,9.916168212890625,0.026136860251426697,-0.010401785373687744,0.0131683349609375
16.7266845703125,-16.41082763671875,-13.72528076171875,-9.1552734375E-4,-0.0022735595703125,1.373291015625E-4,0.1981201171875,-0.2024383544921875,9.913787841796875,-0.021571233868598938,0.011155396699905396,0.017705917358398438
16.41845703125,-17.29736328125,-12.6251220703125,0.0022735595703125,-0.0022735595703125,-0.0019989013671875,0.183746337890625,-0.216796875,9.875473022460938,-0.03561878204345703,-0.0032589733600616455,-0.020719528198242188
16.73126220703125,-16.39862060546875,-12.95928955078125,0.001220703125,9.307861328125E-4,-9.307861328125E-4,0.236419677734375,-0.2407379150390625,9.8994140625,0.01684655249118805,-0.026790857315063477,0.003086090087890625
17.35992431640625,-15.7958984375,-13.28887939453125,0.001220703125,9.307861328125E-4,-9.307861328125E-4,0.226837158203125,-0.22637939453125,9.90899658203125,0.007256463170051575,-0.012333020567893982,0.012834548950195313
17.9962158203125,-16.21856689453125,-12.21466064453125,1.52587890625E-4,-0.0022735595703125,-9.307861328125E-4,0.2124786376953125,-0.190460205078125,9.90899658203125,-0.007174596190452576,0.023154422640800476,0.012523651123046875
16.89453125,-16.5283203125,-11.88507080078125,1.52587890625E-4,-0.0012054443359375,1.373291015625E-4,0.18853759765625,-0.231170654296875,9.87786865234375,-0.030799493193626404,-0.01728023588657379,-0.01842975616455078
17.3675537109375,-17.8741455078125,-12.01019287109375,-9.1552734375E-4,-1.373291015625E-4,-9.307861328125E-4,0.2172698974609375,-0.1832733154296875,9.913787841796875,-0.0019997507333755493,0.030046269297599792,0.01730060577392578
17.83447265625,-17.43316650390625,-12.9486083984375,0.001220703125,-0.0022735595703125,-9.307861328125E-4,0.18853759765625,-0.2096099853515625,9.90899658203125,-0.03047320246696472,0.0036769360303878784,0.012343406677246094
17.0501708984375,-17.88482666015625,-12.4664306640625,-9.1552734375E-4,-1.373291015625E-4,-9.307861328125E-4,0.20050048828125,-0.1832733154296875,9.885055541992188,-0.01846770942211151,0.029630005359649658,-0.011739730834960938
19.085693359375,-17.59490966796875,-14.80255126953125,0.001220703125,-0.0012054443359375,-9.307861328125E-4,0.2028961181640625,-0.2144012451171875,9.88983154296875,-0.015969127416610718,-0.0013019144535064697,-0.0067501068115234375
18.4600830078125,-15.78826904296875,-13.76495361328125,-9.1552734375E-4,-1.373291015625E-4,1.373291015625E-4,0.171783447265625,-0.2335662841796875,9.885055541992188,-0.04657050967216492,-0.020038217306137085,-0.011491775512695313
16.4154052734375,-18.05419921875,-13.067626953125,1.52587890625E-4,-1.373291015625E-4,-9.307861328125E-4,0.193328857421875,-0.2239837646484375,9.887451171875,-0.024537771940231323,-0.010449260473251343,-0.008846282958984375
19.87152099609375,-17.29278564453125,-15.2801513671875,-9.1552734375E-4,-0.0012054443359375,-9.307861328125E-4,0.2100830078125,-0.2144012451171875,9.928146362304688,-0.008121758699417114,-8.173137903213501E-4,0.031561851501464844
18.77593994140625,-16.97998046875,-13.58642578125,1.52587890625E-4,-0.0022735595703125,-0.0019989013671875,0.20050048828125,-0.22637939453125,9.918563842773438,-0.01752324402332306,-0.012502163648605347,0.021697044372558594
18.463134765625,-17.1295166015625,-13.2720947265625,-9.1552734375E-4,-1.373291015625E-4,-9.307861328125E-4,0.1861419677734375,-0.1808929443359375,9.88983154296875,-0.03145770728588104,0.03277777135372162,-0.0070953369140625
16.4093017578125,-17.3248291015625,-14.312744140625,0.001220703125,-0.0033416748046875,-9.307861328125E-4,0.2100830078125,-0.2335662841796875,9.928146362304688,-0.00752413272857666,-0.01991206407546997,0.030821800231933594
17.2088623046875,-18.02825927734375,-12.158203125,-9.1552734375E-4,-1.373291015625E-4,-0.0019989013671875,0.224456787109375,-0.1928558349609375,9.894622802734375,0.006613940000534058,0.020334258675575256,-0.0027141571044921875
16.2567138671875,-16.85943603515625,-13.2476806640625,0.0022735595703125,-0.0022735595703125,1.373291015625E-4,0.214874267578125,-0.190460205078125,9.911392211914063,-0.0030466467142105103,0.02240656316280365,0.013646125793457031
17.5140380859375,-16.552734375,-13.88702392578125,1.52587890625E-4,-1.373291015625E-4,-9.307861328125E-4,0.1981201171875,-0.1976470947265625,9.87786865234375,-0.01959840953350067,0.015088751912117004,-0.019744873046875
19.09027099609375,-17.57965087890625,-13.8824462890625,-9.1552734375E-4,-0.0012054443359375,-0.0019989013671875,0.205291748046875,-0.23834228515625,9.8994140625,-0.012490451335906982,-0.025293931365013123,0.0021724700927734375
18.15032958984375,-17.12799072265625,-12.9608154296875,-9.1552734375E-4,-0.0022735595703125,-9.307861328125E-4,0.2076873779296875,-0.2335662841796875,9.858718872070313,-0.010169416666030884,-0.020043164491653442,-0.03807544708251953
17.3553466796875,-17.1600341796875,-14.1754150390625,0.001220703125,9.307861328125E-4,-9.307861328125E-4,0.214874267578125,-0.2479248046875,9.906600952148438,-0.0031057894229888916,-0.034018293023109436,0.010176658630371094
16.88385009765625,-17.31109619140625,-13.85955810546875,1.52587890625E-4,-1.373291015625E-4,1.373291015625E-4,0.2172698974609375,-0.22637939453125,9.8994140625,-9.141117334365845E-4,-0.012340843677520752,0.003021240234375
17.828369140625,-16.85333251953125,-14.190673828125,1.52587890625E-4,-0.0012054443359375,-0.0019989013671875,0.20050048828125,-0.22637939453125,9.918563842773438,-0.017562955617904663,-0.012131825089454651,0.02192211151123047
17.3583984375,-18.499755859375,-13.68255615234375,-0.001983642578125,-1.373291015625E-4,-0.0019989013671875,0.21966552734375,-0.231170654296875,9.880264282226563,0.0014235973358154297,-0.016619578003883362,-0.016221046447753906
17.8253173828125,-15.8111572265625,-14.6759033203125,0.001220703125,-0.0022735595703125,1.373291015625E-4,0.2124786376953125,-0.216796875,9.887451171875,-0.005923822522163391,-0.002188742160797119,-0.008547782897949219
17.3583984375,-17.901611328125,-13.69781494140625,1.52587890625E-4,-1.373291015625E-4,1.373291015625E-4,0.21966552734375,-0.212005615234375,9.8994140625,0.001307159662246704,0.0025711804628372192,0.0034761428833007813
17.51251220703125,-18.35784912109375,-14.30206298828125,0.001220703125,-0.0012054443359375,1.373291015625E-4,0.2100830078125,-0.221588134765625,9.880264282226563,-0.00830104947090149,-0.007209718227386475,-0.01543426513671875
17.98553466796875,-18.35174560546875,-14.30816650390625,0.001220703125,-0.0012054443359375,0.0012054443359375,0.2100830078125,-0.2287750244140625,9.932937622070313,-0.008668094873428345,-0.01450173556804657,0.03715801239013672
18.00079345703125,-17.55523681640625,-11.41357421875,0.001220703125,-1.373291015625E-4,-9.307861328125E-4,0.2076873779296875,-0.2335662841796875,9.95208740234375,-0.001325070858001709,0.028368085622787476,0.055362701416015625
16.876220703125,-15.23590087890625,-15.29083251953125,1.52587890625E-4,-1.373291015625E-4,-9.307861328125E-4,0.214874267578125,-0.2072296142578125,9.911392211914063,0.005671098828315735,-4.3651461601257324E-4,-0.016440391540527344
18.30902099609375,-18.3197021484375,-12.62664794921875,1.52587890625E-4,-1.373291015625E-4,1.373291015625E-4,0.2172698974609375,-0.2024383544921875,9.897018432617188,-0.0015549957752227783,-0.0028668493032455444,-0.0020656585693359375
18.46160888671875,-17.8863525390625,-13.71307373046875,-0.001983642578125,-0.0022735595703125,-9.307861328125E-4,0.1861419677734375,-0.2359466552734375,9.88983154296875,-0.025133490562438965,-0.0073266178369522095,-0.0067386627197265625
17.35992431640625,-16.84417724609375,-13.262939453125,1.52587890625E-4,0.001983642578125,1.373291015625E-4,0.171783447265625,-0.221588134765625,9.90899658203125,-0.017388418316841125,9.149312973022461E-6,0.043089866638183594
18.15185546875,-16.07208251953125,-12.5274658203125,0.001220703125,9.307861328125E-4,-9.307861328125E-4,0.2076873779296875,-0.2144012451171875,9.911392211914063,-0.0052978843450546265,0.01417703926563263,0.04023551940917969
18.93157958984375,-17.13714599609375,-14.19830322265625,-0.0030517578125,-0.0022735595703125,0.0012054443359375,0.1957244873046875,-0.1832733154296875,9.88983154296875,-0.00988808274269104,0.025873929262161255,-0.033631324768066406
16.10870361328125,-16.98150634765625,-11.40289306640625,-0.001983642578125,-0.0022735595703125,-9.307861328125E-4,0.193328857421875,-0.212005615234375,9.870681762695313,-0.01926124095916748,-0.0027096718549728394,-0.014135360717773438
17.205810546875,-18.035888671875,-12.61749267578125,-0.001983642578125,-1.373291015625E-4,-0.0019989013671875,0.214874267578125,-0.2096099853515625,9.865890502929688,0.006970196962356567,-0.01689121127128601,4.7969818115234375E-4
16.4215087890625,-18.3380126953125,-12.139892578125,-9.1552734375E-4,-0.0022735595703125,0.0012054443359375,0.21966552734375,-0.2144012451171875,9.882659912109375,-0.014705851674079895,-0.02371944487094879,-0.02314281463623047
15.008544921875,-15.49072265625,-10.96343994140625,0.001220703125,-0.0022735595703125,-9.307861328125E-4,0.214874267578125,-0.2191925048828125,9.94012451171875,0.0019522607326507568,0.0072516947984695435,-0.009058952331542969
16.259765625,-18.2037353515625,-12.90740966796875,-9.1552734375E-4,-1.373291015625E-4,-9.307861328125E-4,0.224456787109375,-0.200042724609375,9.897018432617188,0.0018661171197891235,0.014183416962623596,-0.006627082824707031
16.41998291015625,-15.94085693359375,-12.19940185546875,-9.1552734375E-4,-1.373291015625E-4,0.00225830078125,0.2220611572265625,-0.2144012451171875,9.906600952148438,0.02317267656326294,0.014159947633743286,-0.009015083312988281
17.8375244140625,-17.12493896484375,-12.49542236328125,1.52587890625E-4,-0.0022735595703125,1.373291015625E-4,0.2100830078125,-0.212005615234375,9.882659912109375,-0.010367259383201599,-0.05256664752960205,0.005414009094238281
19.091796875,-17.2760009765625,-13.5833740234375,1.52587890625E-4,-0.0022735595703125,-0.0019989013671875,0.2100830078125,-0.2503204345703125,9.925750732421875,-0.02710258960723877,3.8501620292663574E-4,3.8051605224609375E-4
17.510986328125,-18.06640625,-14.76898193359375,1.52587890625E-4,-0.0022735595703125,-9.307861328125E-4,0.1813507080078125,-0.1737060546875,9.901809692382813,-0.00542779266834259,0.03315421938896179,0.033580780029296875
17.36602783203125,-15.77606201171875,-12.0635986328125,-0.001983642578125,0.001983642578125,1.373291015625E-4,0.2220611572265625,-0.221588134765625,9.90899658203125,-0.010029137134552002,0.014036983251571655,-0.004795074462890625
17.3553466796875,-16.41082763671875,-14.19525146484375,1.52587890625E-4,0.001983642578125,0.0012054443359375,0.1693878173828125,-0.190460205078125,9.901809692382813,-0.009402349591255188,0.0018493831157684326,0.01894378662109375
16.10107421875,-17.608642578125,-13.07373046875,-0.001983642578125,-1.373291015625E-4,1.373291015625E-4,0.20050048828125,-0.204833984375,9.904205322265625,-0.016325771808624268,0.028018340468406677,0.0044918060302734375
16.4154052734375,-17.30499267578125,-13.0859375,0.001220703125,-0.00439453125,0.0012054443359375,0.2340240478515625,-0.2072296142578125,9.887451171875,0.01204332709312439,-0.017456546425819397,0.037781715393066406
16.4215087890625,-16.53594970703125,-11.87744140625,0.0022735595703125,-0.0012054443359375,-0.0019989013671875,0.2124786376953125,-0.200042724609375,9.906600952148438,-0.016835376620292664,-0.01759624481201172,0.03026866912841797
15.31524658203125,-18.06182861328125,-12.591552734375,-9.1552734375E-4,-0.0012054443359375,-9.307861328125E-4,0.1813507080078125,-0.2551116943359375,9.9305419921875,-0.02363063395023346,-0.04549957811832428,0.02262401580810547
16.09649658203125,-18.37005615234375,-13.8214111328125,0.001220703125,9.307861328125E-4,-0.0019989013671875,0.2220611572265625,-0.2622833251953125,9.885055541992188,0.005132779479026794,-0.04714904725551605,-0.013001441955566406
19.24896240234375,-16.82586669921875,-13.74969482421875,1.52587890625E-4,-0.0022735595703125,-0.0030670166015625,0.1765594482421875,-0.348480224609375,9.8994140625,-0.04009045660495758,-0.13163119554519653,0.0014934539794921875
17.36907958984375,-17.4163818359375,-11.56158447265625,-9.1552734375E-4,-0.00653076171875,0.0012054443359375,0.152618408203125,-0.611846923828125,9.935333251953125,-0.06351886689662933,-0.38826847076416016,0.03723907470703125
15.64178466796875,-17.41943359375,-10.3118896484375,0.001220703125,-0.0012054443359375,-0.004119873046875,0.1238861083984375,-0.4514312744140625,9.84674072265625,-0.09165260195732117,-0.22534357011318207,-0.0507659912109375
18.4600830078125,-17.43621826171875,-13.7237548828125,-0.0030517578125,-0.017181396484375,0.00439453125,0.1502227783203125,0.0130462646484375,9.844345092773438,-0.06425663828849792,0.23741239309310913,-0.052498817443847656
18.310546875,-16.51458740234375,-12.21160888671875,1.52587890625E-4,0.0115814208984375,-0.0222320556640625,0.3585205078125,0.2357025146484375,9.8682861328125,0.14096246659755707,0.45207923650741577,-0.029127120971679688
18.77593994140625,-15.93170166015625,-13.61236572265625,-0.0030517578125,-0.007598876953125,-0.0030670166015625,0.2172698974609375,-0.1665191650390625,9.932937622070313,-9.07018780708313E-4,0.04607090353965759,0.035671234130859375
17.35992431640625,-17.89398193359375,-13.23699951171875,-0.001983642578125,0.001983642578125,-9.307861328125E-4,0.20050048828125,-0.1737060546875,9.918563842773438,-0.017091616988182068,0.03884671628475189,0.021121978759765625
18.310546875,-16.51458740234375,-12.21160888671875,1.52587890625E-4,0.001983642578125,-9.307861328125E-4,0.205291748046875,-0.1713104248046875,9.935333251953125,-0.011838436126708984,0.040984392166137695,0.03721904754638672
17.3583984375,-16.851806640625,-13.7237548828125,0.001220703125,0.001983642578125,1.373291015625E-4,0.2340240478515625,-0.243133544921875,9.8994140625,0.016554713249206543,-0.03053887188434601,9.403228759765625E-4
17.9931640625,-16.2261962890625,-12.6739501953125,-9.1552734375E-4,0.006256103515625,-9.307861328125E-4,0.236419677734375,-0.2479248046875,9.911392211914063,0.019418805837631226,-0.03458377718925476,0.013010025024414063
18.30596923828125,-17.578125,-13.104248046875,-9.1552734375E-4,0.004119873046875,-9.307861328125E-4,0.214874267578125,-0.2096099853515625,9.906600952148438,-0.0013307034969329834,0.0038905441761016846,0.008424758911132813
17.9901123046875,-15.93475341796875,-13.140869140625,-0.001983642578125,0.0307464599609375,-0.00732421875,0.2412109375,0.0561370849609375,9.906600952148438,0.026932746171951294,0.267209529876709,0.008026123046875
17.52777099609375,-18.310546875,-11.38916015625,0.001220703125,0.025421142578125,-0.0339508056640625,0.226837158203125,0.041778564453125,9.916168212890625,0.014478519558906555,0.2473827600479126,0.017719268798828125
17.19970703125,-16.55731201171875,-13.8824462890625,-9.1552734375E-4,0.025421142578125,-0.029693603515625,0.236419677734375,-0.1665191650390625,9.961669921875,0.02592940628528595,0.0372847318649292,0.06287193298339844
17.51861572265625,-17.58880615234375,-13.09356689453125,0.001220703125,0.0382080078125,-0.01904296875,0.0855865478515625,-0.6142425537109375,9.798858642578125,-0.11967277526855469,-0.4055676758289337,-0.09952354431152344
16.412353515625,-16.56341552734375,-13.56353759765625,1.52587890625E-4,0.001983642578125,-0.0137176513671875,0.1957244873046875,-0.2718658447265625,9.894622802734375,-0.008331164717674255,-0.06080165505409241,-0.0031328201293945313
17.83294677734375,-17.437744140625,-13.25531005859375,-0.001983642578125,0.0147705078125,-0.015838623046875,0.2100830078125,0.106414794921875,9.928146362304688,0.006854906678199768,0.3141648769378662,0.02982616424560547
18.31207275390625,-16.20941162109375,-11.91253662109375,0.001220703125,0.02862548828125,-0.029693603515625,0.1119232177734375,-0.0276641845703125,9.990402221679688,-0.0881158709526062,0.17469282448291779,0.09066390991210938
16.25823974609375,-17.1539306640625,-12.933349609375,0.0022735595703125,0.027557373046875,-0.00518798828125,0.1286773681640625,-0.0132904052734375,9.94012451171875,-0.0672333836555481,0.18637417256832123,0.03959178924560547
17.2027587890625,-16.99371337890625,-13.104248046875,0.0044097900390625,0.117034912109375,-0.0030670166015625,-0.0317230224609375,-0.2766571044921875,10.105316162109375,-0.215782031416893,-0.07583236694335938,0.200286865234375
17.35687255859375,-16.10260009765625,-13.7420654296875,0.009735107421875,0.22357177734375,0.0075836181640625,-0.03411865234375,-0.3820037841796875,10.292068481445313,-0.19833645224571228,-0.18130986392498016,0.3849315643310547
17.828369140625,-17.901611328125,-14.1632080078125,0.0203857421875,0.3929443359375,0.0097198486328125,0.1286773681640625,-0.52325439453125,10.457260131835938,-4.6558678150177E-4,-0.32315510511398315,0.5469856262207031
16.73126220703125,-18.20220947265625,-13.22021484375,0.035308837890625,0.4792327880859375,0.0129241943359375,0.394439697265625,-0.5447998046875,9.861114501953125,0.3102830648422241,-0.3460093140602112,-0.05035209655761719
19.879150390625,-15.91644287109375,-13.62762451171875,0.0438232421875,0.4430084228515625,0.0214385986328125,-0.4267730712890625,-0.8225250244140625,10.062225341796875,-0.4656980633735657,-0.6253514289855957,0.1503276824951172
18.46466064453125,-15.77606201171875,-12.99896240234375,0.0438232421875,0.5101165771484375,0.0778961181640625,-0.608734130859375,-0.3867950439453125,10.332763671875,-0.5973414778709412,-0.1925056278705597,0.41904544830322266
17.987060546875,-16.9952392578125,-13.8824462890625,0.0502166748046875,0.5814971923828125,0.097076416015625,-0.218475341796875,-0.67169189453125,10.045455932617188,-0.14932295680046082,-0.4805615544319153,0.1311960220336914
17.0379638671875,-17.919921875,-14.61334228515625,0.0555419921875,0.611328125,0.108795166015625,-0.3477630615234375,-0.97576904296875,9.87786865234375,-0.21675574779510498,-0.7873972058296204,-0.03592395782470703
19.88067626953125,-16.2078857421875,-13.16070556640625,0.0597991943359375,0.4525909423828125,0.13116455078125,0.131072998046875,-0.3101806640625,9.731826782226563,0.31083476543426514,-0.12676377594470978,-0.18009185791015625
18.77593994140625,-16.52984619140625,-13.59710693359375,0.08856201171875,0.4675140380859375,0.120513916015625,0.1693878173828125,0.001068115234375,10.1220703125,0.39217251539230347,0.17622749507427216,0.20976543426513672
20.1995849609375,-16.94488525390625,-12.6861572265625,0.0299835205078125,0.321563720703125,-0.015838623046875,0.5069732666015625,0.71453857421875,9.04229736328125,0.9166886210441589,0.5730185508728027,-0.8142576217651367
19.57244873046875,-16.04461669921875,-12.08648681640625,-0.0062408447265625,0.26617431640625,-0.0584564208984375,0.583587646484375,0.453582763671875,9.408599853515625,0.6103098392486572,0.8309524655342102,-0.13213253021240234
18.7896728515625,-15.1397705078125,-11.02447509765625,-0.068023681640625,0.436614990234375,-0.12237548828125,0.1861419677734375,1.2436676025390625,10.114898681640625,0.5103102922439575,1.9490587711334229,0.3753976821899414
20.1934814453125,-16.96624755859375,-13.9129638671875,0.0086669921875,0.3865509033203125,-0.1937408447265625,-0.345367431640625,0.9372100830078125,10.615280151367188,-0.48436906933784485,-0.4602489471435547,-0.31109046936035156
18.15185546875,-16.8212890625,-12.50762939453125,-0.0509796142578125,0.321563720703125,-0.0850830078125,-1.0013885498046875,-1.78021240234375,9.121307373046875,-0.35174113512039185,-1.445051908493042,-0.7683582305908203
20.51239013671875,-17.99774169921875,-13.12408447265625,-0.02435302734375,0.189483642578125,-0.050994873046875,-0.472259521484375,-0.6573333740234375,9.5714111328125,0.11810621619224548,-0.4584861993789673,0.35057830810546875
20.82366943359375,-17.10357666015625,-13.76495361328125,-9.1552734375E-4,0.2512664794921875,-0.0946807861328125,-0.1155242919921875,-0.9781494140625,10.23699951171875,0.15441623330116272,-0.9371429681777954,0.07541179656982422
18.93768310546875,-17.41790771484375,-12.9638671875,0.019317626953125,0.2267608642578125,-0.1181182861328125,-0.2974853515625,-1.22955322265625,9.76055908203125,0.39173364639282227,-0.551702082157135,0.15783977508544922
18.93768310546875,-17.1173095703125,-12.97149658203125,0.0417022705078125,0.253387451171875,-0.14154052734375,0.0807952880859375,0.005859375,10.16278076171875,0.5788009762763977,0.18452724814414978,0.2655954360961914
19.87762451171875,-16.52069091796875,-13.9190673828125,0.0630035400390625,0.28961181640625,-0.18841552734375,-0.4698638916015625,0.5900421142578125,10.184326171875,-0.4734097719192505,0.8329170346260071,0.17273330688476563
19.40765380859375,-17.57049560546875,-13.580322265625,0.0630035400390625,0.1809539794921875,-0.1585845947265625,-1.0037689208984375,0.01544189453125,9.504379272460938,0.0014168620109558105,-0.33092445135116577,-0.4254131317138672
20.5169677734375,-16.9342041015625,-12.2314453125,0.024658203125,-0.009735107421875,-0.1820220947265625,0.0736083984375,-0.48016357421875,9.442123413085938,1.1967933177947998,0.0023378878831863403,-0.41858482360839844
19.25201416015625,-18.46771240234375,-13.24920654296875,1.52587890625E-4,-0.3335723876953125,-0.28961181640625,0.7823028564453125,0.020233154296875,9.530715942382813,0.18946874141693115,-0.2671748399734497,-0.06229400634765625
18.9361572265625,-17.87261962890625,-13.2598876953125,0.0076141357421875,-0.5807037353515625,-0.1490020751953125,-2.21044921875,-0.6309967041015625,10.0478515625,-2.9081764221191406,0.17890068888664246,-0.20129013061523438
19.403076171875,-16.2353515625,-14.3798828125,-0.011566162109375,-0.7213287353515625,0.0320892333984375,-2.9598388671875,0.6738433837890625,9.530715942382813,-1.0461132526397705,0.7512088418006897,-0.2628765106201172
17.51251220703125,-18.658447265625,-14.29443359375,-0.0264892578125,-0.6179962158203125,0.0683135986328125,-0.292694091796875,-0.01568603515625,9.980819702148438,0.3936651051044464,-0.22820936143398285,0.5091123580932617
19.25506591796875,-16.8060302734375,-12.5244140625,0.024658203125,-0.374053955078125,0.0225067138671875,0.00897216796875,-0.22637939453125,10.61767578125,0.47913438081741333,0.06778369843959808,0.9376392364501953
20.19500732421875,-16.51153564453125,-13.616943359375,0.1652679443359375,-0.1972198486328125,-0.0669708251953125,0.858917236328125,0.0345916748046875,11.402969360351563,2.0700535774230957,0.473650723695755,2.3964290618896484
19.5648193359375,-16.064453125,-13.31329345703125,0.44329833984375,-0.1514129638671875,-0.283233642578125,2.2212066650390625,0.4080810546875,12.928085327148438,1.862093448638916,0.14225734770298004,3.173013687133789
19.2535400390625,-18.46160888671875,-12.9425048828125,0.7213287353515625,-0.4677886962890625,-0.4025421142578125,0.5883636474609375,0.0657196044921875,12.784423828125,0.33698999881744385,0.31451472640037537,2.1893320083618164
19.88067626953125,-18.3135986328125,-13.568115234375,0.82891845703125,-1.033447265625,-0.3886871337890625,-0.1251068115234375,0.23809814453125,11.472412109375,-1.1800315380096436,-0.38229888677597046,0.5148334503173828
18.93768310546875,-18.91632080078125,-12.92724609375,0.8896484375,-1.5767364501953125,-0.0808258056640625,-2.17694091796875,-0.5519866943359375,9.468460083007813,-1.7537542581558228,0.20502141118049622,-0.5272636413574219
18.30291748046875,-17.291259765625,-13.87939453125,0.863006591796875,-1.4148101806640625,-0.0818939208984375,0.3130340576171875,-0.413116455078125,9.94012451171875,0.16010215878486633,-0.6130330562591553,7.152557373046875E-5
16.2506103515625,-19.580078125,-14.5599365234375,0.8363800048828125,-0.7681884765625,-0.1255645751953125,1.4981689453125,-0.0923004150390625,10.05743408203125,1.249391794204712,-0.37284061312675476,0.12086963653564453
17.98553466796875,-19.70062255859375,-14.27459716796875,0.8704681396484375,-0.2984161376953125,-0.3343658447265625,1.1007232666015625,0.95635986328125,10.84033203125,0.8094971179962158,0.5887749195098877,0.9048118591308594
16.2567138671875,-20.31402587890625,-13.62152099609375,0.9077606201171875,-0.179107666015625,-0.347137451171875,-0.026947021484375,-0.506500244140625,11.249740600585938,-0.3344077169895172,-0.9611145257949829,1.3134193420410156
15.3076171875,-20.4864501953125,-14.2181396484375,0.8736724853515625,-0.473114013671875,-0.267242431640625,0.574005126953125,0.9012908935546875,10.572189331054688,0.23091793060302734,0.3577752709388733,0.6380558013916016
16.7205810546875,-21.0845947265625,-15.29693603515625,0.7799224853515625,-1.00787353515625,-0.2193145751953125,0.9139862060546875,0.0178375244140625,9.681549072265625,0.4853529632091522,-0.6036916375160217,-0.24434661865234375
16.876220703125,-19.7357177734375,-15.48614501953125,0.6552886962890625,-1.3146820068359375,-0.14581298828125,0.6458282470703125,-0.204833984375,10.021514892578125,0.0921357274055481,-0.8917957544326782,0.10629749298095703
13.89312744140625,-22.296142578125,-13.6932373046875,0.5530242919921875,-1.2518310546875,-0.0712432861328125,0.54766845703125,-0.4203033447265625,9.229034423828125,-0.13002079725265503,-1.1601920127868652,-0.6728916168212891
14.6820068359375,-20.18280029296875,-13.45062255859375,0.4049530029296875,-1.13677978515625,-0.050994873046875,0.104736328125,0.62835693359375,8.60894775390625,-0.6858625411987305,-0.1542220115661621,-1.2764472961425781
15.1519775390625,-21.68426513671875,-14.031982421875,0.190826416015625,-0.9503631591796875,0.024627685546875,-0.7930908203125,0.2596435546875,7.3878936767578125,-1.6744484901428223,-0.5446263551712036,-2.478778839111328
15.9423828125,-21.66595458984375,-13.5833740234375,-0.0392608642578125,-0.555145263671875,-0.0339508056640625,1.29705810546875,0.42724609375,10.038284301757813,0.34938913583755493,-0.3771934509277344,0.1807107925415039
14.0472412109375,-22.15728759765625,-14.46533203125,-0.081878662109375,0.1703033447265625,-0.1138458251953125,2.149383544921875,1.4926605224609375,11.532257080078125,1.1981852054595947,0.6940227746963501,1.667872428894043
14.9871826171875,-21.5606689453125,-15.4144287109375,0.09283447265625,0.041412353515625,-0.1830902099609375,1.028900146484375,1.8254547119140625,11.132431030273438,0.09144443273544312,1.0182669162750244,1.262059211730957
13.25225830078125,-22.7874755859375,-15.66619873046875,0.3133392333984375,-0.613739013671875,-0.156463623046875,1.103118896484375,1.923614501953125,10.974411010742188,0.12350034713745117,1.0845814943313599,1.1058712005615234
14.36309814453125,-23.8006591796875,-14.4287109375,0.4805908203125,-1.0835113525390625,-0.1277008056640625,1.20367431640625,1.801513671875,11.235382080078125,0.12730669975280762,0.9149741530418396,1.3757352828979492
13.26141357421875,-22.16033935546875,-13.995361328125,0.6105499267578125,-1.1346435546875,-0.199066162109375,1.124664306640625,0.898895263671875,10.581756591796875,-0.061363816261291504,-0.048181235790252686,0.7367868423461914
11.99798583984375,-23.98529052734375,-14.544677734375,0.6318511962890625,-0.9812469482421875,-0.1479339599609375,0.5237274169921875,0.4511871337890625,9.379867553710938,-0.7576318979263306,-0.5568339824676514,-0.44626426696777344
11.8438720703125,-23.529052734375,-13.9404296875,0.5540924072265625,-0.9365081787109375,-0.1735076904296875,0.8876495361328125,0.6522979736328125,8.371917724609375,-0.4815208911895752,-0.41308295726776123,-1.4310503005981445
10.888671875,-22.3724365234375,-15.79742431640625,0.409210205078125,-0.7426300048828125,-0.1319580078125,0.7344207763671875,0.98748779296875,8.860336303710938,-0.7094475030899048,-0.12265229225158691,-0.9223670959472656
11.84234619140625,-25.33416748046875,-14.35546875,0.2579498291015625,-0.370849609375,-0.0936126708984375,1.2802886962890625,1.3346405029296875,9.6456298828125,-0.20571374893188477,0.1946544647216797,-0.1258563995361328
11.19842529296875,-24.786376953125,-16.9677734375,0.183380126953125,-0.1748504638671875,-0.1372833251953125,1.9865875244140625,1.3442230224609375,10.062225341796875,0.48075830936431885,0.1820157766342163,0.29515933990478516
12.14752197265625,-24.61395263671875,-16.3726806640625,0.1759185791015625,-0.3399658203125,-0.097869873046875,1.529296875,1.1431121826171875,10.177139282226563,-0.0023491382598876953,-0.03749740123748779,0.41510581970214844
12.77618408203125,-24.7589111328125,-16.6839599609375,0.21746826171875,-0.646759033203125,-0.100006103515625,2.4678192138671875,1.564483642578125,11.24017333984375,0.879568338394165,0.361782431602478,1.4849605560302734
12.310791015625,-25.79193115234375,-15.27099609375,0.2664642333984375,-0.87152099609375,-0.1713714599609375,2.7359619140625,1.3968963623046875,11.153976440429688,1.066823124885559,0.16591227054595947,1.4093685150146484
9.62982177734375,-24.93438720703125,-15.56243896484375,0.2686004638671875,-1.2528839111328125,-0.203338623046875,2.0200958251953125,1.0425567626953125,10.483596801757813,0.24129927158355713,-0.2173936367034912,0.7586479187011719
9.9517822265625,-25.6591796875,-14.3218994140625,0.249420166015625,-1.60443115234375,-0.1319580078125,1.4598541259765625,0.9635467529296875,10.509933471679688,-0.46307826042175293,-0.3223518133163452,0.813385009765625
8.99810791015625,-25.85296630859375,-16.14532470703125,0.2760467529296875,-1.626800537109375,-0.0115814208984375,-0.2160797119140625,0.860595703125,9.736602783203125,-2.2893319129943848,-0.45080459117889404,0.07465648651123047
10.09979248046875,-25.53863525390625,-16.168212890625,0.25262451171875,-1.4627532958984375,0.0906829833984375,0.796661376953125,0.865386962890625,8.460494995117188,-1.4156134128570557,-0.46714603900909424,-1.1625633239746094
6.8023681640625,-26.1474609375,-13.96026611328125,0.17059326171875,-1.021728515625,0.059783935546875,2.52288818359375,1.1119842529296875,8.189956665039063,0.20045995712280273,-0.23728537559509277,-1.3993968963623047
7.7362060546875,-25.42266845703125,-16.29180908203125,-0.04779052734375,-0.317596435546875,-0.0328826904296875,2.834136962890625,0.92523193359375,9.284103393554688,0.6846165657043457,-0.3674502372741699,0.2607908248901367
8.53271484375,-25.68359375,-14.6087646484375,-0.14898681640625,-0.3900299072265625,-0.074432373046875,3.5978851318359375,1.0281829833984375,10.409378051757813,1.6279218196868896,-0.09459066390991211,1.4791173934936523
6.47735595703125,-26.63726806640625,-16.09039306640625,-0.0872039794921875,-0.9237213134765625,-0.1085205078125,3.9833526611328125,1.6099700927734375,11.386215209960938,0.857973575592041,0.29501378536224365,2.028347969055176
5.83953857421875,-25.76904296875,-17.4835205078125,-0.0030517578125,-1.672607421875,-0.0595245361328125,2.61865234375,1.3394317626953125,11.601699829101563,-0.5514593124389648,0.025098204612731934,1.723923683166504
6.005859375,-24.83673095703125,-15.66925048828125,0.1301116943359375,-2.388458251953125,0.01397705078125,1.546051025390625,1.2029571533203125,10.378250122070313,-1.576385498046875,-0.07748031616210938,-0.2528495788574219
4.4281005859375,-26.81732177734375,-16.2109375,0.13330078125,-2.59405517578125,0.0917510986328125,1.7016754150390625,1.81109619140625,8.51556396484375,-1.004399061203003,0.3150252103805542,-1.0807409286499023
1.7578125,-26.0772705078125,-14.5050048828125,0.0864410400390625,-2.00177001953125,0.1130523681640625,2.2906494140625,0.96832275390625,8.350372314453125,-0.8961269855499268,-0.6777297258377075,-0.9350814819335938
2.38189697265625,-26.2359619140625,-15.58380126953125,0.0086669921875,-1.147430419921875,0.0800323486328125,2.482177734375,0.6259613037109375,8.2833251953125,-0.6386892795562744,-0.6483769416809082,-0.9748201370239258
2.38189697265625,-26.2359619140625,-15.58380126953125,-0.0094451904296875,-0.6765899658203125,0.0118560791015625,2.9586334228515625,0.7217254638671875,8.146865844726563,-0.3165011405944824,-0.4415113925933838,-1.206059455871582
0.4913330078125,-25.6622314453125,-15.57159423828125,-0.0424652099609375,-0.6030731201171875,-0.0467376708984375,3.4231109619140625,0.9635467529296875,8.5682373046875,-0.3340921401977539,-0.33474791049957275,0.5033063888549805
-0.45166015625,-27.17132568359375,-15.36865234375,0.080047607421875,-0.038482666015625,-0.0616455078125,2.8125762939453125,1.638702392578125,9.691116333007813,-0.21529674530029297,0.6672922372817993,-0.1969013214111328
0.9613037109375,-26.8646240234375,-16.162109375,0.22918701171875,-0.289886474609375,-0.0243682861328125,3.9163055419921875,1.9475555419921875,9.049468994140625,0.3934662342071533,0.6353040933609009,0.2360401153564453
1.75018310546875,-27.6031494140625,-16.15447998046875,0.397491455078125,-0.4944305419921875,-0.1372833251953125,3.6577301025390625,2.3856964111328125,9.65521240234375,-0.31725049018859863,1.4520014524459839,0.29208850860595703
0.6500244140625,-28.95965576171875,-15.64483642578125,0.491241455078125,-0.6073455810546875,-0.248077392578125,2.9227142333984375,2.4694976806640625,8.687942504882813,-1.5231428146362305,-0.1831045150756836,-1.0642213821411133
0.49591064453125,-29.85076904296875,-15.00701904296875,0.5626068115234375,-0.738372802734375,-0.12982177734375,1.0672149658203125,0.465545654296875,7.64886474609375,-2.8947865962982178,-0.9225832223892212,-2.3260650634765625
1.593017578125,-28.80096435546875,-15.96832275390625,0.464599609375,-0.82891845703125,-0.0595245361328125,1.6466064453125,1.1885986328125,6.02081298828125,-1.2825214862823486,-0.19120967388153076,-3.10623836517334
-0.12969970703125,-28.64532470703125,-14.1082763671875,0.2888336181640625,-0.8342437744140625,-0.017974853515625,3.183685302734375,1.4854736328125,6.217132568359375,-0.3827815055847168,-0.20476830005645752,-2.270890235900879
-0.445556640625,-28.948974609375,-14.0960693359375,0.134368896484375,-0.8576812744140625,-0.00732421875,3.4518280029296875,1.083251953125,7.4453582763671875,-0.20859122276306152,-0.6517881155014038,-0.8856620788574219
-0.9246826171875,-28.82843017578125,-15.47393798828125,0.0630035400390625,-0.886444091796875,-0.00732421875,3.712799072265625,0.9587554931640625,8.084609985351563,0.18523097038269043,-0.610600471496582,-0.42184925079345703
-0.92010498046875,-29.864501953125,-14.68048095703125,0.0033416748046875,-0.9727325439453125,-0.004119873046875,4.146148681640625,1.0018463134765625,8.529937744140625,0.3260669708251953,-0.5715514421463013,-0.20361328125
-1.39617919921875,-29.88433837890625,-15.44036865234375,-0.0499114990234375,-1.34130859375,0.0416717529296875,4.356842041015625,1.205352783203125,8.83160400390625,0.31557273864746094,-0.12060189247131348,0.35994911193847656
-3.28216552734375,-29.13970947265625,-14.2059326171875,-0.092529296875,-1.570343017578125,0.0800323486328125,4.6704864501953125,1.6889801025390625,9.798858642578125,0.6703734397888184,0.1477038860321045,1.665618896484375
-2.8106689453125,-29.59136962890625,-14.66217041015625,-0.300262451171875,-0.6179962158203125,0.1247711181640625,4.895538330078125,1.5668792724609375,13.028640747070313,0.5981450080871582,-0.025964021682739258,3.094355583190918
-3.59954833984375,-28.85284423828125,-14.6697998046875,-0.2789459228515625,-0.738372802734375,0.1908111572265625,3.775054931640625,1.966705322265625,8.635284423828125,-0.6180934906005859,0.42803239822387695,-0.14446163177490234
-3.4423828125,-29.00238037109375,-14.82086181640625,-0.345001220703125,-0.6957550048828125,0.2515411376953125,3.6505584716796875,2.8190460205078125,9.152420043945313,-0.8130879402160645,1.3156497478485107,0.39923572540283203
-5.00946044921875,-28.5491943359375,-13.27667236328125,-0.30877685546875,-0.9322509765625,0.289886474609375,4.2323455810546875,2.0576934814453125,7.600982666015625,-0.3059267997741699,0.5907270908355713,-1.1151313781738281
-5.01556396484375,-30.670166015625,-14.60418701171875,-0.30877685546875,-0.89923095703125,0.323974609375,4.6752777099609375,1.4232330322265625,8.369522094726563,0.052309513092041016,-0.001622915267944336,-0.3076944351196289
-6.74285888671875,-29.02069091796875,-13.08746337890625,-0.25445556640625,-0.8459625244140625,0.2621917724609375,5.281005859375,1.533355712890625,7.8787078857421875,0.5802650451660156,0.14331316947937012,-0.7611465454101563
-6.43310546875,-29.03594970703125,-14.31884765625,-0.262969970703125,-0.9908294677734375,0.2472686767578125,5.3576202392578125,1.1119842529296875,7.85955810546875,0.5704402923583984,-0.24425995349884033,-0.7365303039550781
-6.9122314453125,-28.6102294921875,-15.3961181640625,-0.420623779296875,-1.01959228515625,0.212127685546875,6.3272705078125,-0.3987579345703125,8.66162109375,1.4458932876586914,-1.7085580825805664,0.11058902740478516
-5.01708984375,-29.1717529296875,-14.642333984375,-0.5793609619140625,-0.85980224609375,0.1024017333984375,6.8108978271484375,0.2404937744140625,10.854705810546875,1.8453335762023926,-1.0113645792007446,2.3339614868164063
-7.84454345703125,-29.33502197265625,-13.0645751953125,-0.4983978271484375,-1.0366363525390625,0.1332855224609375,4.3376922607421875,1.3681640625,10.84991455078125,-0.7094874382019043,0.16679120063781738,2.362980842590332
-6.268310546875,-29.6112060546875,-12.92572021484375,-0.2597808837890625,-1.3785858154296875,0.1673736572265625,4.8572235107421875,2.060089111328125,9.736602783203125,-0.3001112937927246,0.8919448852539063,1.3066768646240234
-6.7474365234375,-29.33502197265625,-13.99993896484375,-0.0307464599609375,-1.35089111328125,0.0704345703125,4.7399139404296875,1.1455078125,7.237060546875,-0.5311074256896973,-0.011585474014282227,-1.1214876174926758
-8.94622802734375,-29.0435791015625,-12.59613037109375,0.12371826171875,-1.35089111328125,-0.14154052734375,5.1900177001953125,0.539764404296875,6.5571136474609375,-0.3047800064086914,-0.6353533267974854,-1.6395740509033203
-10.04638671875,-30.1025390625,-12.24822998046875,0.0853729248046875,-1.217742919921875,-0.2075958251953125,5.40789794921875,0.5158233642578125,6.904266357421875,-0.1843857765197754,-0.6762262582778931,-1.2186012268066406
-10.04638671875,-29.80194091796875,-12.255859375,-0.0616302490234375,-1.1889801025390625,-0.189483642578125,6.0806732177734375,0.1255645751953125,7.2657928466796875,0.39445924758911133,-1.073119878768921,-0.788111686706543
-10.04638671875,-29.80194091796875,-12.255859375,-0.0616302490234375,-1.1889801025390625,-0.189483642578125,6.0806732177734375,0.1255645751953125,7.2657928466796875,0.39445924758911133,-1.073119878768921,-0.788111686706543
-10.1959228515625,-29.9285888671875,-10.71624755859375,-0.2406005859375,-1.328521728515625,-0.142608642578125,6.8899078369140625,0.70257568359375,8.235443115234375,1.0997748374938965,-0.4866600036621094,0.25295448303222656
-11.6180419921875,-29.35943603515625,-11.3250732421875,-0.3268890380859375,-1.262481689453125,-0.179901123046875,6.830047607421875,1.5932159423828125,9.248199462890625,0.936767578125,0.41829872131347656,1.3331336975097656
-10.83526611328125,-30.41839599609375,-12.53662109375,-0.2342071533203125,-0.9940338134765625,-0.12982177734375,4.5172576904296875,1.784759521484375,10.021514892578125,-1.4557361602783203,0.620052695274353,2.160141944885254
-12.249755859375,-29.376220703125,-11.7767333984375,-0.0499114990234375,-0.6478271484375,-0.00946044921875,3.6050567626953125,1.9140472412109375,8.561050415039063,-2.4160633087158203,0.7523283958435059,0.7376070022583008
-10.66436767578125,-29.92095947265625,-9.7900390625,0.0523529052734375,-0.8193359375,0.06085205078125,5.2498779296875,1.5549163818359375,5.731109619140625,-0.8249363899230957,0.391605019569397,-2.042971134185791
-12.55950927734375,-29.66156005859375,-10.69183349609375,0.0512847900390625,-1.0717926025390625,0.083221435546875,5.170867919921875,0.7648162841796875,5.719146728515625,-0.980292797088623,-0.39702582359313965,-1.9859237670898438
-13.1927490234375,-28.6285400390625,-11.16790771484375,0.03424072265625,-1.2198638916015625,0.097076416015625,5.2522735595703125,1.459136962890625,6.0351715087890625,-0.9868159294128418,0.29954445362091064,-1.5911874771118164
-14.129638671875,-29.3670654296875,-9.6038818359375,0.023590087890625,-1.2443695068359375,0.1130523681640625,5.8340606689453125,1.5572967529296875,6.8468017578125,-0.49814558029174805,0.4013187885284424,-0.698796272277832
-13.18511962890625,-30.255126953125,-9.747314453125,0.009735107421875,-1.1761932373046875,0.106658935546875,6.616973876953125,1.226898193359375,7.917022705078125,0.1947188377380371,0.0766599178314209,0.44671106338500977
-13.18359375,-29.20074462890625,-9.466552734375,0.0395660400390625,-1.034515380859375,0.0107879638671875,7.38311767578125,1.1287384033203125,8.886672973632813,0.8788604736328125,-0.021443724632263184,1.4814395904541016
-13.4857177734375,-30.36651611328125,-7.13348388671875,0.0502166748046875,-0.849151611328125,-0.0733642578125,7.7183074951171875,0.92523193359375,8.745407104492188,1.1455388069152832,-0.23152077198028564,1.3945503234863281
-12.86468505859375,-30.987548828125,-8.966064453125,-0.0168914794921875,-0.6190643310546875,-0.1585845947265625,7.3304443359375,1.4184417724609375,7.960113525390625,0.7076525688171387,0.2521018981933594,0.6506543159484863
-13.96636962890625,-28.8970947265625,-8.54339599609375,-0.04779052734375,-0.632904052734375,-0.20013427734375,6.511627197265625,1.8781280517578125,7.0167999267578125,-0.15304803848266602,0.7003711462020874,-0.25282955169677734
-15.06805419921875,-30.7098388671875,-8.48236083984375,-0.011566162109375,-0.7841796875,-0.177764892578125,6.2099609375,2.177398681640625,6.7582244873046875,-0.5049552917480469,0.9861493110656738,-0.4606804847717285
-14.288330078125,-29.2205810546875,-9.75799560546875,0.011871337890625,-0.886444091796875,-0.1905517578125,5.7646331787109375,2.43597412109375,7.347198486328125,-1.0071310997009277,1.2284164428710938,0.18628549575805664
-16.00799560546875,-30.40618896484375,-7.403564453125,0.0363616943359375,-0.625457763671875,-0.203338623046875,5.699981689453125,2.304290771484375,7.5147857666015625,-0.9379758834838867,0.8569900989532471,-0.21586132049560547
-16.3299560546875,-31.18133544921875,-8.76007080078125,-0.069091796875,-0.6883087158203125,-0.18841552734375,6.2985382080078125,1.8134765625,5.577880859375,-0.47376203536987305,0.2797830104827881,-2.1184873580932617
-17.26531982421875,-30.26275634765625,-6.77642822265625,-0.2342071533203125,-0.6627349853515625,-0.0925445556640625,6.4421844482421875,1.1167755126953125,5.84124755859375,-0.17824363708496094,-0.03362154960632324,-0.9438095092773438
-15.6951904296875,-30.859375,-7.85675048828125,-0.3694915771484375,-0.599884033203125,-0.130889892578125,6.7462615966796875,1.3346405029296875,5.1780548095703125,-0.6682782173156738,-0.14877116680145264,-1.7215604782104492
-15.84930419921875,-31.30035400390625,-7.23114013671875,-0.42169189453125,-0.738372802734375,-0.0488739013671875,5.731109619140625,0.8294677734375,5.6018218994140625,-1.3267760276794434,-0.45576417446136475,-0.8295931816101074
-17.8985595703125,-29.07867431640625,-7.1044921875,-0.408905029296875,-0.8885650634765625,0.0342254638671875,5.9657440185546875,0.834259033203125,6.5810546875,-0.802910327911377,-0.26883256435394287,0.06796884536743164
-16.96014404296875,-29.23736572265625,-8.4930419921875,-0.2789459228515625,-0.954620361328125,0.048065185546875,6.4637451171875,0.815093994140625,7.0598907470703125,-0.5251965522766113,-0.408815860748291,0.26859569549560547
-17.74139404296875,-29.6783447265625,-7.244873046875,-0.1425933837890625,-1.04302978515625,0.073638916015625,6.865966796875,0.8174896240234375,7.105377197265625,-0.11460161209106445,-0.2713913917541504,0.42146921157836914
-18.84765625,-30.0048828125,-7.98797607421875,-0.010498046875,-1.168731689453125,0.017181396484375,7.3112945556640625,0.7480621337890625,7.1197509765625,0.21904850006103516,-0.4923105239868164,0.4553961753845215
-18.3685302734375,-29.229736328125,-6.787109375,0.0736541748046875,-1.4275970458984375,-0.04248046875,7.387908935546875,0.487091064453125,7.198760986328125,-0.1418452262878418,-0.8479191064834595,0.7604832649230957
-18.99261474609375,-29.36553955078125,-5.3955078125,0.1514129638671875,-1.7258758544921875,-0.039276123046875,7.2179107666015625,0.1399383544921875,7.4549407958984375,-0.14664173126220703,-1.1197116374969482,1.0841069221496582
-18.98956298828125,-29.80804443359375,-4.92401123046875,0.16845703125,-1.9485015869140625,0.01611328125,7.2394561767578125,0.08966064453125,7.124542236328125,-0.8838825225830078,-0.7813165187835693,-0.49002504348754883
-19.9432373046875,-31.048583984375,-6.719970703125,0.0821685791015625,-1.9985809326171875,0.130096435546875,6.724700927734375,0.42724609375,6.152496337890625,-0.8365373611450195,-0.5802886486053467,0.6637396812438965
-21.978759765625,-29.38385009765625,-3.973388671875,0.134368896484375,-1.7386474609375,0.11944580078125,6.8899078369140625,0.6953887939453125,7.1029815673828125,-0.8383126258850098,-0.3517104387283325,1.0616745948791504
-21.51031494140625,-30.1422119140625,-4.88128662109375,0.3144073486328125,-1.737579345703125,0.16204833984375,7.0455322265625,0.908477783203125,7.0287628173828125,-0.8109846115112305,0.059661269187927246,1.7752571105957031
-20.40252685546875,-29.36248779296875,-3.9947509765625,0.8054962158203125,-1.9730072021484375,0.1471405029296875,7.1532745361328125,1.5022430419921875,8.268966674804688,-0.8114128112792969,0.5512646436691284,2.5481677055358887
-21.014404296875,-30.21240234375,-0.43792724609375,1.342376708984375,-2.323486328125,0.1226348876953125,7.3065032958984375,1.7392578125,8.098983764648438,-0.7228994369506836,0.3709152936935425,2.154428005218506
-22.7508544921875,-30.84564208984375,-1.01165771484375,1.7258758544921875,-2.5067138671875,0.0576629638671875,7.5985870361328125,1.3178863525390625,6.8946990966796875,-0.5192251205444336,-0.2947784662246704,0.6823649406433105
-22.74017333984375,-30.36346435546875,0.970458984375,1.802581787109375,-2.606842041015625,0.0075836181640625,7.869140625,0.7528533935546875,4.929046630859375,-0.4830331802368164,-0.7457103729248047,-1.1130237579345703
-25.09765625,-31.27593994140625,2.099609375,1.5543670654296875,-2.6558380126953125,0.0448760986328125,7.8619537353515625,0.73370361328125,3.1573486328125,-0.6226978302001953,-0.6107273101806641,-2.224818229675293
-24.62005615234375,-32.30438232421875,3.03802490234375,1.083526611328125,-2.766632080078125,0.1599273681640625,8.142074584960938,1.193389892578125,2.2738800048828125,-0.14713573455810547,0.02493429183959961,-2.407914161682129
-27.11944580078125,-32.42340087890625,7.06329345703125,0.3250579833984375,-3.1831512451171875,0.0097198486328125,9.715072631835938,2.7807464599609375,3.957000732421875,0.6691207885742188,1.2326226234436035,0.23266291618347168
-27.2613525390625,-32.22503662109375,10.1287841796875,0.362335205078125,-3.1117706298828125,-0.197998046875,8.53472900390625,1.511810302734375,2.508514404296875,-0.7207317352294922,-0.0873100757598877,-0.6315014362335205
-27.2613525390625,-32.22503662109375,10.1287841796875,0.362335205078125,-3.1117706298828125,-0.197998046875,8.53472900390625,1.511810302734375,2.508514404296875,-0.7207317352294922,-0.0873100757598877,-0.6315014362335205
-27.2613525390625,-32.22503662109375,10.1287841796875,0.362335205078125,-3.1117706298828125,-0.197998046875,8.53472900390625,1.511810302734375,2.508514404296875,-0.7207317352294922,-0.0873100757598877,-0.6315014362335205
-27.2613525390625,-32.22503662109375,10.1287841796875,0.362335205078125,-3.1117706298828125,-0.197998046875,8.53472900390625,1.511810302734375,2.508514404296875,-0.7207317352294922,-0.0873100757598877,-0.6315014362335205
-29.13055419921875,-33.98590087890625,14.031982421875,0.350616455078125,-3.20233154296875,-0.1287689208984375,8.151657104492188,1.56927490234375,1.388031005859375,-1.2315483093261719,-0.16123545169830322,-0.9495911598205566
-29.2816162109375,-31.2652587890625,15.4998779296875,0.38470458984375,-3.6145782470703125,-0.09893798828125,9.985610961914063,2.4958343505859375,2.264312744140625,0.4115571975708008,0.8205312490463257,0.40974342823028564
-29.2816162109375,-31.2652587890625,15.4998779296875,0.38470458984375,-3.6145782470703125,-0.09893798828125,9.985610961914063,2.4958343505859375,2.264312744140625,0.4115571975708008,0.8205312490463257,0.40974342823028564
-29.2816162109375,-31.2652587890625,15.4998779296875,0.38470458984375,-3.6145782470703125,-0.09893798828125,9.985610961914063,2.4958343505859375,2.264312744140625,0.4115571975708008,0.8205312490463257,0.40974342823028564
-28.32794189453125,-33.6273193359375,16.92657470703125,0.4390411376953125,-3.5570526123046875,-0.22357177734375,10.538665771484375,2.5628662109375,2.149383544921875,0.9060907363891602,0.8599767684936523,0.6397109031677246
-28.955078125,-33.77685546875,17.55218505859375,0.4038848876953125,-3.4313507080078125,-0.338623046875,10.58416748046875,2.1007843017578125,1.194091796875,0.9082727432250977,0.36082327365875244,0.022910237312316895
-29.26025390625,-32.696533203125,19.67620849609375,0.2920379638671875,-3.35784912109375,-0.37164306640625,10.332763671875,1.9068603515625,0.1502227783203125,0.6277666091918945,0.12807083129882813,-0.690916895866394
-29.00238037109375,-28.00750732421875,-2.44293212890625,0.13330078125,-3.40472412109375,-0.3759002685546875,9.925750732421875,2.0840301513671875,-0.5823974609375,0.20397663116455078,0.26738858222961426,-1.0926218032836914
-29.779052734375,-28.28216552734375,-0.2777099609375,-0.048858642578125,-3.520843505859375,-0.4344940185546875,9.777313232421875,2.6873626708984375,-0.840972900390625,0.05105018615722656,0.8288793563842773,-1.012873888015747
-30.4046630859375,-27.374267578125,0.78277587890625,-0.2288818359375,-3.734954833984375,-0.54315185546875,9.858718872070313,2.9603118896484375,-0.8433685302734375,0.14197063446044922,1.0495413541793823,-0.6620294451713562
-28.509521484375,-28.0853271484375,1.5411376953125,-0.3354034423828125,-3.8787689208984375,-0.73809814453125,10.208267211914063,2.87890625,-0.333404541015625,0.5174369812011719,0.8987830877304077,0.21328699588775635
-29.443359375,-27.46124267578125,3.839111328125,-0.36309814453125,-3.78289794921875,-0.988433837890625,10.169967651367188,2.01220703125,-0.3358001708984375,0.5236377716064453,-0.05981898307800293,0.5673257112503052
-30.8502197265625,-28.4942626953125,6.03179931640625,-0.378021240234375,-3.6444091796875,-1.1077423095703125,10.016738891601563,1.372955322265625,-0.5536651611328125,0.4313077926635742,-0.8051421642303467,0.6902704238891602
-28.48968505859375,-29.37164306640625,5.40771484375,-0.36737060546875,-3.544281005859375,-1.0821685791015625,9.97125244140625,1.4280242919921875,-0.6278839111328125,0.4584951400756836,-0.8563232421875,0.9424983263015747
-27.05841064453125,-29.913330078125,7.70111083984375,-0.3162384033203125,-3.429229736328125,-1.0044097900390625,9.86590576171875,1.5357513427734375,-1.0348968505859375,0.4350252151489258,-0.8484036922454834,0.8505227565765381
-28.0029296875,-29.77447509765625,7.8643798828125,-0.2757568359375,-3.29180908203125,-0.9117279052734375,9.87786865234375,1.85418701171875,-1.331787109375,0.5350856781005859,-0.6204643249511719,0.8534097671508789
-28.778076171875,-28.2440185546875,10.44464111328125,-0.276824951171875,-3.10858154296875,-0.8574066162109375,9.858718872070313,2.3426055908203125,-1.5089569091796875,0.608860969543457,-0.21759414672851563,0.9580392837524414
-27.66876220703125,-29.70733642578125,11.69281005859375,-0.286407470703125,-2.8965911865234375,-0.8115997314453125,9.425369262695313,2.3426055908203125,-1.84893798828125,0.2714805603027344,-0.2990736961364746,0.8771383762359619
-27.0294189453125,-31.170654296875,13.2537841796875,-0.2224884033203125,-2.5450592041015625,-0.779632568359375,8.551483154296875,2.0624847412109375,-2.045257568359375,-0.5064105987548828,-0.6557543277740479,0.9098515510559082
-26.72119140625,-30.889892578125,11.8621826171875,-0.1180877685546875,-2.254241943359375,-0.6294403076171875,7.9864501953125,2.134307861328125,-2.4187469482421875,-0.9805088043212891,-0.646939754486084,0.7370741367340088
-25.6103515625,-30.84716796875,13.53302001953125,0.011871337890625,-2.13812255859375,-0.3982696533203125,7.706329345703125,2.4072418212890625,-2.543243408203125,-1.1756038665771484,-0.41385722160339355,0.8004071712493896
-23.40087890625,-31.85882568359375,13.98773193359375,0.122650146484375,-2.148773193359375,-0.1830902099609375,7.641693115234375,2.890869140625,-2.7515411376953125,-1.157607078552246,0.053076982498168945,0.7806332111358643
-24.188232421875,-33.21685791015625,14.03350830078125,0.1652679443359375,-2.25103759765625,-0.0584564208984375,7.9242095947265625,2.86932373046875,-2.9789886474609375,-0.7905998229980469,0.0296785831451416,0.7479209899902344
-24.3255615234375,-31.6558837890625,17.9840087890625,0.2089385986328125,-2.2798004150390625,-0.01690673828125,8.6424560546875,2.9603118896484375,-3.23516845703125,0.015456199645996094,0.12604832649230957,0.6917600631713867
-23.2208251953125,-31.63299560546875,18.42803955078125,0.2206573486328125,-2.129608154296875,-0.05206298828125,9.020751953125,2.9459381103515625,-3.3165740966796875,0.4805479049682617,0.1166067123413086,0.7995896339416504
-23.69537353515625,-31.79473876953125,18.13201904296875,0.192962646484375,-1.7439727783203125,-0.029693603515625,8.889068603515625,2.6921539306640625,-3.840911865234375,0.282806396484375,-0.16135096549987793,0.38835620880126953
-24.3255615234375,-32.25555419921875,17.999267578125,0.179107666015625,-1.488311767578125,0.0459442138671875,8.470077514648438,2.7232818603515625,-4.12103271484375,-0.09287834167480469,-0.007256507873535156,0.22239351272583008
-22.42431640625,-31.14471435546875,20.0927734375,0.1535491943359375,-1.33172607421875,0.143951416015625,8.02716064453125,2.8453826904296875,-4.475372314453125,-0.4980812072753906,-0.0408015251159668,-0.019974708557128906
-21.79412841796875,-30.9844970703125,20.233154296875,0.1407623291015625,-1.2795257568359375,0.2462158203125,7.6153564453125,2.7615814208984375,-4.707611083984375,-0.7278060913085938,0.15158295631408691,0.060840606689453125
-21.4813232421875,-31.7413330078125,19.48089599609375,0.1279754638671875,-1.3029632568359375,0.2163848876953125,7.5507049560546875,3.2811279296875,-4.70281982421875,-0.5473623275756836,0.5871326923370361,0.018041610717773438
-22.26104736328125,-30.67626953125,21.1517333984375,0.1173248291015625,-1.38604736328125,0.15460205078125,7.526763916015625,3.0153656005859375,-4.7483062744140625,-0.6920623779296875,-0.09756731986999512,0.22279119491577148
-21.31500244140625,-30.810546875,21.295166015625,0.08856201171875,-1.3785858154296875,0.1215667724609375,7.3926849365234375,2.2659912109375,-4.8847808837890625,-0.5825347900390625,-0.5961565971374512,-0.02590179443359375
-21.3104248046875,-30.7952880859375,22.21527099609375,0.044891357421875,-1.389251708984375,0.1450042724609375,7.6656341552734375,2.1582489013671875,-5.150543212890625,-0.20148372650146484,-0.3560192584991455,-0.014307498931884766
-22.412109375,-30.05523681640625,22.5189208984375,-0.0147705078125,-1.3381195068359375,0.153533935546875,7.81646728515625,2.5293426513671875,-5.1649017333984375,-0.1352252960205078,-0.03966689109802246,0.17107868194580078
-22.72796630859375,-30.059814453125,22.52349853515625,-0.0616302490234375,-1.225189208984375,0.16632080078125,7.7518157958984375,2.7184906005859375,-5.0332183837890625,-0.07297897338867188,0.10172319412231445,0.47289180755615234
-22.08404541015625,-29.4097900390625,25.10528564453125,-0.07122802734375,-1.057952880859375,0.1993408203125,7.7470245361328125,2.7879180908203125,-4.824920654296875,-0.11455535888671875,0.05739474296569824,0.6577644348144531
-20.9930419921875,-28.9794921875,22.93243408203125,-0.056304931640625,-0.8768463134765625,0.2387542724609375,7.63690185546875,2.6131439208984375,-4.834503173828125,-0.23043155670166016,-0.11959290504455566,0.7470302581787109
-21.29669189453125,-29.69818115234375,25.10223388671875,0.0949554443359375,-0.829986572265625,0.3782958984375,7.102996826171875,1.9834747314453125,-4.8009796142578125,-0.3953237533569336,-0.504126787185669,0.8248739242553711
-21.29669189453125,-29.69818115234375,25.10223388671875,0.0949554443359375,-0.829986572265625,0.3782958984375,7.102996826171875,1.9834747314453125,-4.8009796142578125,-0.3953237533569336,-0.504126787185669,0.8248739242553711
-20.6787109375,-28.52935791015625,22.7630615234375,0.1439666748046875,-0.9130706787109375,0.367645263671875,7.3232574462890625,2.0792388916015625,-4.9637908935546875,-0.2528657913208008,-0.3908836841583252,0.6949477195739746
-20.6787109375,-28.52935791015625,22.7630615234375,0.1439666748046875,-0.9130706787109375,0.367645263671875,7.3232574462890625,2.0792388916015625,-4.9637908935546875,-0.2528657913208008,-0.3908836841583252,0.6949477195739746
-21.295166015625,-27.59552001953125,25.35552978515625,0.19189453125,-0.987640380859375,0.344207763671875,7.4381866455078125,2.304290771484375,-5.0954742431640625,-0.06441831588745117,-0.028192520141601563,0.6579675674438477
-21.61712646484375,-27.91900634765625,24.1424560546875,0.2462310791015625,-1.079254150390625,0.2739105224609375,7.3855133056640625,2.47906494140625,-5.31573486328125,-0.3040628433227539,0.07417488098144531,0.49204111099243164
-20.355224609375,-27.447509765625,24.41864013671875,0.3218536376953125,-1.201751708984375,0.17803955078125,7.0958099365234375,2.598785400390625,-5.5072784423828125,-0.4470682144165039,0.25509071350097656,0.48661375045776367
-20.1812744140625,-26.79595947265625,27.4688720703125,0.3516845703125,-1.25927734375,0.0906829833984375,6.94976806640625,2.567657470703125,-5.648529052734375,-0.40021562576293945,-0.257152795791626,0.15439224243164063
-20.184326171875,-27.25372314453125,27.020263671875,0.3559417724609375,-1.2230682373046875,0.08642578125,7.03594970703125,1.7991180419921875,-6.1896209716796875,-0.01659536361694336,-0.6610057353973389,-0.11490201950073242
-20.02105712890625,-28.436279296875,27.813720703125,0.3048095703125,-1.008941650390625,0.1215667724609375,7.6153564453125,1.806304931640625,-6.4601593017578125,0.7302732467651367,-0.3087601661682129,-0.24802732467651367
-18.9239501953125,-27.68707275390625,26.86004638671875,0.2195892333984375,-0.724517822265625,0.15460205078125,8.309661865234375,2.091217041015625,-6.7618408203125,1.123744010925293,-0.21808934211730957,-0.40024280548095703
-20.18585205078125,-27.557373046875,26.72119140625,0.157806396484375,-0.508270263671875,0.1812286376953125,7.9720916748046875,1.9810791015625,-6.9102783203125,0.8148565292358398,-0.30403852462768555,-0.5042524337768555
-19.0826416015625,-26.1932373046875,26.67083740234375,0.1098785400390625,-0.48590087890625,0.1695098876953125,7.663238525390625,2.0552978515625,-6.948577880859375,0.5310783386230469,-0.209214448928833,-0.5046186447143555
-18.6065673828125,-26.1749267578125,27.43072509765625,0.115203857421875,-0.6403656005859375,0.1641845703125,7.18438720703125,1.712921142578125,-6.9126739501953125,0.08585786819458008,-0.5319867134094238,-0.42363882064819336
-18.45245361328125,-26.9317626953125,26.8341064453125,0.18017578125,-0.8033447265625,0.1524658203125,7.0958099365234375,1.923614501953125,-6.70916748046875,0.04369640350341797,-0.2988288402557373,-0.16169309616088867
-19.22760009765625,-25.25482177734375,29.2572021484375,0.2803192138671875,-0.7373046875,0.0768280029296875,6.9377899169921875,2.177398681640625,-6.737884521484375,-0.06655168533325195,-0.021368741989135742,-0.13133907318115234
-18.1243896484375,-25.8392333984375,29.2572021484375,0.3218536376953125,-0.679779052734375,0.064056396484375,6.9689178466796875,2.6346893310546875,-7.2454681396484375,0.008414268493652344,0.4600684642791748,-0.5834083557128906
-17.03033447265625,-25.54931640625,27.7008056640625,0.2781829833984375,-0.69256591796875,0.1024017333984375,7.1436920166015625,2.8286285400390625,-7.3675689697265625,0.22667407989501953,0.678227424621582,-0.6500053405761719
-18.92242431640625,-25.28228759765625,27.25982666015625,0.22491455078125,-0.599884033203125,0.0821533203125,7.4645233154296875,2.5006256103515625,-7.5423431396484375,0.5863518714904785,0.370894193649292,-0.774993896484375
-17.18902587890625,-25.1068115234375,27.38494873046875,0.18231201171875,-0.5828399658203125,0.0885467529296875,7.7183074951171875,1.949951171875,-7.7745819091796875,0.8751578330993652,-0.16098523139953613,-0.9616246223449707
-18.4356689453125,-23.13079833984375,30.11322021484375,0.146087646484375,-0.6265106201171875,0.0938720703125,7.864349365234375,2.0433197021484375,-7.6428985595703125,1.0585050582885742,-0.05050516128540039,-0.7828531265258789
-17.181396484375,-23.5809326171875,29.034423828125,0.1290435791015625,-0.6286468505859375,0.06085205078125,7.8092803955078125,2.273162841796875,-7.413055419921875,1.0424628257751465,0.19269585609436035,-0.5063748359680176
-16.55120849609375,-24.1729736328125,28.88641357421875,0.1162567138671875,-0.5476837158203125,0.050201416015625,7.727874755859375,2.409637451171875,-7.32208251953125,0.9966306686401367,0.3400399684906006,-0.3737311363220215
-17.02423095703125,-24.7802734375,28.90777587890625,0.122650146484375,-0.346343994140625,0.0342254638671875,7.241851806640625,2.198944091796875,-7.1927947998046875,0.5364327430725098,0.1395397186279297,-0.21417665481567383
-17.0196533203125,-24.1668701171875,29.6600341796875,0.1407623291015625,-0.09600830078125,0.08428955078125,6.9593353271484375,1.9691009521484375,-7.3986968994140625,0.2620682716369629,-0.0763556957244873,-0.4064497947692871
-16.0736083984375,-23.9990234375,29.949951171875,0.1173248291015625,0.0328826904296875,0.1993408203125,6.8348388671875,1.858978271484375,-7.4202423095703125,0.13331937789916992,-0.16615033149719238,-0.42484331130981445
-16.2384033203125,-25.225830078125,28.448486328125,0.1162567138671875,0.1127777099609375,0.2856292724609375,6.7414703369140625,1.9619293212890625,-7.360382080078125,0.027974605560302734,-0.03733229637145996,-0.36803436279296875
-16.0858154296875,-24.64141845703125,27.35748291015625,0.103485107421875,0.117034912109375,0.335693359375,6.9713134765625,2.1534576416015625,-7.25982666015625,0.2426285743713379,0.1830223798751831,-0.2726473808288574
-16.082763671875,-22.97821044921875,28.23638916015625,0.110931396484375,0.1021270751953125,0.3292999267578125,7.3974761962890625,2.177398681640625,-7.1329345703125,0.653745174407959,0.23619401454925537,-0.1502399444580078
-16.558837890625,-25.54931640625,27.23388671875,0.122650146484375,0.093597412109375,0.2834930419921875,7.6345062255859375,2.208526611328125,-7.116180419921875,0.8763303756713867,0.2948486804962158,-0.13725852966308594
-17.17987060546875,-24.33013916015625,29.052734375,0.1088104248046875,0.1244964599609375,0.218505859375,7.589019775390625,2.007415771484375,-7.101806640625,0.8164381980895996,0.11683857440948486,-0.12811899185180664
-14.97039794921875,-24.28436279296875,29.9407958984375,0.08111572265625,0.1457977294921875,0.1790924072265625,7.3304443359375,1.7631988525390625,-7.2191314697265625,0.5428061485290527,-0.10840070247650146,-0.25290346145629883
-18.13201904296875,-23.16131591796875,27.9632568359375,0.031036376953125,0.1362152099609375,0.186553955078125,7.2179107666015625,1.801513671875,-7.1520843505859375,0.4163203239440918,-0.05452680587768555,-0.1937427520751953
-18.4356689453125,-25.2288818359375,30.1666259765625,-0.0062408447265625,0.1436767578125,0.1908111572265625,7.2657928466796875,1.870941162109375,-6.953369140625,0.44991016387939453,0.027787327766418457,-0.004428863525390625
-16.3909912109375,-23.5626220703125,29.4830322265625,-0.0158233642578125,0.15325927734375,0.172698974609375,7.378326416015625,1.9691009521484375,-6.7546539306640625,0.5475435256958008,0.13673877716064453,0.18353796005249023
-19.23675537109375,-23.48175048828125,27.679443359375,-0.0062408447265625,0.152191162109375,0.1269073486328125,7.272979736328125,2.03375244140625,-6.5918426513671875,0.4278573989868164,0.2096390724182129,0.33499908447265625
-16.55731201171875,-21.64154052734375,27.90374755859375,0.023590087890625,0.1564483642578125,0.0661773681640625,7.088623046875,1.9188232421875,-6.5176239013671875,0.23097991943359375,0.10089194774627686,0.39824485778808594
-18.9208984375,-23.4771728515625,27.67486572265625,0.0523529052734375,0.1490020751953125,0.040618896484375,6.9329986572265625,1.775177001953125,-6.5750885009765625,0.06373023986816406,-0.03664374351501465,0.33022069931030273
-17.498779296875,-22.99346923828125,28.56292724609375,0.0523529052734375,0.081878662109375,0.02996826171875,6.7989349365234375,1.966705322265625,-6.6756439208984375,-0.07773160934448242,0.16073930263519287,0.22314882278442383
-19.39849853515625,-24.0997314453125,26.62353515625,0.0384979248046875,-0.0949554443359375,-0.01904296875,6.904266357421875,1.849395751953125,-6.8408355712890625,0.06854629516601563,0.020210862159729004,0.07312631607055664
-17.5018310546875,-23.6053466796875,27.81219482421875,0.0491485595703125,-0.2643280029296875,-0.017974853515625,7.0455322265625,1.839813232421875,-6.69000244140625,0.2873721122741699,0.017128825187683105,0.2850785255432129
-16.2353515625,-22.6654052734375,29.15191650390625,0.0949554443359375,-0.2526092529296875,-0.050994873046875,7.210723876953125,1.870941162109375,-6.52960205078125,0.4181098937988281,0.08202755451202393,0.43781280517578125
-17.498779296875,-22.5433349609375,28.55224609375,0.1290435791015625,-0.14501953125,-0.076568603515625,7.2657928466796875,1.8733367919921875,-6.555938720703125,0.47069883346557617,0.09488081932067871,0.3428826332092285
-17.49420166015625,-22.528076171875,29.47235107421875,0.115203857421875,0.0925445556640625,-0.0254364013671875,7.28973388671875,1.858978271484375,-6.7857818603515625,0.5113897323608398,0.11668336391448975,0.15778350830078125
-17.34466552734375,-22.40142822265625,27.9327392578125,0.1077423095703125,0.24273681640625,0.00225830078125,7.3759307861328125,1.976287841796875,-6.8456268310546875,0.5629978179931641,0.17126893997192383,0.0019941329956054688
-17.34466552734375,-22.40142822265625,27.9327392578125,0.1077423095703125,0.24273681640625,0.00225830078125,7.3759307861328125,1.976287841796875,-6.8456268310546875,0.5629978179931641,0.17126893997192383,0.0019941329956054688
-16.55731201171875,-23.13995361328125,27.94036865234375,0.0970916748046875,0.3535308837890625,0.048065185546875,7.378326416015625,1.837432861328125,-7.0347747802734375,0.46668148040771484,-0.020671844482421875,-0.14762115478515625
-17.669677734375,-21.68426513671875,26.23291015625,0.0906982421875,0.457916259765625,0.07470703125,7.272979736328125,1.660247802734375,-7.0778656005859375,0.2938704490661621,-0.15293490886688232,-0.14626121520996094
-17.6605224609375,-21.65679931640625,27.91900634765625,0.0906982421875,0.5346221923828125,0.09814453125,7.2059478759765625,1.638702392578125,-7.101806640625,0.30634450912475586,-0.10913252830505371,-0.22291946411132813
-17.34161376953125,-22.393798828125,28.3935546875,0.0853729248046875,0.598541259765625,0.118377685546875,7.3328399658203125,1.648284912109375,-6.989288330078125,0.41737890243530273,-0.05925428867340088,-0.11257219314575195
-19.08111572265625,-23.03466796875,27.3590087890625,0.101348876953125,0.6837615966796875,0.120513916015625,7.5339508056640625,1.765594482421875,-6.8863372802734375,0.6995677947998047,0.1851872205734253,-0.08483171463012695
-19.70672607421875,-22.57843017578125,28.277587890625,0.1141357421875,0.7732391357421875,0.108795166015625,7.895477294921875,1.9954376220703125,-6.8480224609375,0.9541058540344238,0.38878142833709717,-0.05855846405029297
-18.28460693359375,-21.94671630859375,29.00848388671875,0.110931396484375,0.895751953125,0.085357666015625,8.118133544921875,2.1175537109375,-6.7857818603515625,0.9885740280151367,0.37067997455596924,-0.12196683883666992
-18.45855712890625,-21.69952392578125,25.9368896484375,0.10028076171875,1.0565948486328125,0.061920166015625,8.17559814453125,1.954742431640625,-6.7594451904296875,1.0047492980957031,0.20929288864135742,-0.14147424697875977
-19.4000244140625,-22.601318359375,26.58538818359375,0.0725860595703125,1.2515411376953125,0.0704345703125,8.21868896484375,1.8039093017578125,-6.769012451171875,0.9470577239990234,0.08969879150390625,-0.22844982147216797
-20.50323486328125,-22.3175048828125,26.59454345703125,0.0267791748046875,1.4369049072265625,0.0874786376953125,8.278549194335938,1.8326416015625,-6.6923980712890625,0.9164881706237793,0.2654294967651367,-0.22548675537109375
-21.14410400390625,-21.4599609375,24.5880126953125,-0.0190277099609375,1.5700531005859375,0.0917510986328125,8.24981689453125,1.9954376220703125,-6.6349334716796875,0.7585277557373047,0.4094594717025757,-0.27385377883911133
-21.295166015625,-23.0926513671875,25.70343017578125,-0.05523681640625,1.6851043701171875,0.0800323486328125,8.268966674804688,2.0552978515625,-6.4481964111328125,0.6843018531799316,0.28032052516937256,-0.15109539031982422
-21.1395263671875,-21.7437744140625,25.5157470703125,-0.069091796875,1.7234649658203125,0.07470703125,8.278549194335938,1.933197021484375,-6.3284759521484375,0.620976448059082,0.18025553226470947,-0.2163224220275879
-21.1395263671875,-21.7437744140625,25.5157470703125,-0.0776214599609375,1.73944091796875,0.0778961181640625,8.268966674804688,1.8326416015625,-6.3284759521484375,0.5096373558044434,0.08022689819335938,-0.1682415008544922
-22.56622314453125,-21.19140625,23.834228515625,-0.0722808837890625,1.806549072265625,0.0885467529296875,8.228271484375,1.6937713623046875,-6.00286865234375,0.43268680572509766,0.07031416893005371,0.0431060791015625
-23.1964111328125,-23.1536865234375,23.583984375,-0.0541839599609375,1.9024200439453125,0.0874786376953125,8.340789794921875,1.7943267822265625,-5.7155609130859375,0.5034341812133789,0.2457674741744995,0.21143674850463867
-21.466064453125,-21.484375,23.36578369140625,-0.025421142578125,2.07073974609375,0.064056396484375,8.580215454101563,1.875732421875,-5.3827667236328125,0.5428647994995117,0.2320348024368286,0.21571779251098633
-25.25482177734375,-21.86279296875,21.74072265625,-0.0083770751953125,2.21881103515625,0.050201416015625,8.769363403320313,1.8254547119140625,-5.17926025390625,0.6104555130004883,0.18479418754577637,0.24332714080810547
-23.358154296875,-22.26715087890625,22.95074462890625,0.087493896484375,2.32958984375,0.0203704833984375,9.051864624023438,2.2037353515625,-4.5304412841796875,0.7690858840942383,0.5670040845870972,0.7041606903076172
-24.4781494140625,-22.33734130859375,19.59381103515625,0.20361328125,2.4595489501953125,-0.01690673828125,9.288894653320313,2.0624847412109375,-4.7961883544921875,0.8800201416015625,0.43283629417419434,0.23880434036254883
-23.69537353515625,-22.63946533203125,18.8232421875,0.2568817138671875,2.5330657958984375,-0.0222320556640625,9.255386352539063,1.6363067626953125,-4.865631103515625,0.7222261428833008,0.016435861587524414,-0.037427425384521484
-25.909423828125,-21.9482421875,17.14935302734375,0.2920379638671875,2.6576995849609375,-0.0147857666015625,8.89385986328125,1.152679443359375,-4.9230804443359375,0.2373790740966797,-0.45470988750457764,-0.31320858001708984
-26.226806640625,-23.31085205078125,16.5740966796875,0.3229217529296875,2.7333221435546875,0.0470123291015625,8.240234375,0.79833984375,-5.0739288330078125,-0.536900520324707,-0.7907841205596924,-0.6922836303710938
-27.490234375,-23.48785400390625,15.98358154296875,0.3367767333984375,2.6534271240234375,0.1705780029296875,7.6129608154296875,1.1119842529296875,-5.3444671630859375,-1.276991844177246,-0.44938743114471436,-1.1896309852600098
-26.23443603515625,-22.88055419921875,15.33660888671875,0.3048095703125,2.6449127197265625,0.3186492919921875,7.6991424560546875,1.4926605224609375,-4.56634521484375,-1.296945571899414,-0.030954480171203613,-0.6376137733459473
-27.81219482421875,-23.0621337890625,14.75067138671875,0.25048828125,2.7216033935546875,0.4571380615234375,8.443740844726563,1.7679901123046875,-4.307769775390625,-0.6586179733276367,0.2920416593551636,-0.6160416603088379
-27.6611328125,-21.2799072265625,13.629150390625,0.122650146484375,2.69818115234375,0.503997802734375,9.552261352539063,1.7631988525390625,-3.8241424560546875,0.34682464599609375,0.3373849391937256,-0.37438416481018066
-27.35443115234375,-22.35260009765625,11.96441650390625,-0.05523681640625,2.8153533935546875,0.4411468505859375,10.464447021484375,1.5477294921875,-3.1465911865234375,1.1590614318847656,0.16348445415496826,0.04932427406311035
-27.6702880859375,-20.55816650390625,11.92474365234375,-0.2789459228515625,3.0305328369140625,0.303741455078125,11.395797729492188,1.3130950927734375,-2.4833984375,1.9910087585449219,-0.04616355895996094,0.4326183795928955
-30.0384521484375,-22.10693359375,10.9222412109375,-0.3961334228515625,3.2819366455078125,0.08428955078125,11.690277099609375,0.846221923828125,-1.664581298828125,2.19027042388916,-0.5091277360916138,0.9438464641571045
-29.5867919921875,-23.065185546875,6.951904296875,-0.4302215576171875,3.52587890625,-0.100006103515625,10.873855590820313,0.487091064453125,-1.676544189453125,1.2866878509521484,-0.8821361064910889,0.5958292484283447
-30.38177490234375,-21.44775390625,5.69610595703125,-0.3950653076171875,3.5908660888671875,-0.1394195556640625,9.207489013671875,0.59722900390625,-1.6358489990234375,-0.45226192474365234,-0.7918118238449097,0.2879737615585327
-28.81622314453125,-22.81036376953125,3.5614013671875,-0.333282470703125,3.6228179931640625,-0.0254364013671875,8.10137939453125,1.0712738037109375,-1.6214752197265625,-1.6166887283325195,-0.32861220836639404,-0.0498654842376709
-30.55419921875,-23.0010986328125,2.51617431640625,-0.3023834228515625,3.6238861083984375,0.1673736572265625,7.821258544921875,1.289154052734375,-1.5927581787109375,-1.9438371658325195,-0.10339415073394775,-0.37539517879486084
-29.76837158203125,-23.297119140625,2.05230712890625,-0.3119659423828125,3.484344482421875,0.3548736572265625,8.240234375,1.1598663330078125,-1.295867919921875,-1.5613279342651367,-0.20541107654571533,-0.423164427280426
-30.7159423828125,-22.86376953125,1.9012451171875,-0.3162384033203125,3.199920654296875,0.4528656005859375,9.2864990234375,1.1502838134765625,-0.539306640625,-0.5418577194213867,-0.17418193817138672,0.011504888534545898
-29.9346923828125,-21.82464599609375,0.6378173828125,-0.2789459228515625,2.95703125,0.3846893310546875,10.26812744140625,1.416046142578125,0.4351348876953125,0.4218759536743164,0.13059866428375244,0.687201976776123
-29.9591064453125,-21.9024658203125,-4.11529541015625,-0.115966796875,2.9144287109375,0.0075836181640625,10.445297241210938,1.648284912109375,1.6035003662109375,0.5934762954711914,0.38970673084259033,1.282086968421936
-29.9591064453125,-21.9024658203125,-4.11529541015625,-0.115966796875,2.9144287109375,0.0075836181640625,10.445297241210938,1.648284912109375,1.6035003662109375,0.5934762954711914,0.38970673084259033,1.282086968421936
-30.75408935546875,-22.2381591796875,-5.62896728515625,-0.0733489990234375,3.09552001953125,-0.0925445556640625,10.10052490234375,1.2652130126953125,1.261138916015625,0.26311302185058594,-4.899501800537109E-4,0.6390402913093567
-31.55364990234375,-23.7823486328125,-7.72705078125,-0.0957183837890625,3.3160247802734375,-0.1372833251953125,9.92095947265625,1.2173309326171875,1.14141845703125,0.10991954803466797,-0.0598522424697876,0.20110875368118286
-31.87255859375,-23.35205078125,-8.65325927734375,-0.1756134033203125,3.5237579345703125,-0.1617889404296875,9.662399291992188,0.9587554931640625,0.8636932373046875,-0.1083383560180664,-0.33140242099761963,-0.4146554470062256
-30.45654296875,-24.0875244140625,-8.96148681640625,-0.2757568359375,3.5322723388671875,-0.1287689208984375,9.468460083007813,0.74566650390625,0.8660888671875,-0.24886512756347656,-0.5532855987548828,-0.7566336393356323
-29.99267578125,-22.30987548828125,-10.699462890625,-0.352447509765625,3.3618316650390625,-0.0669708251953125,9.05426025390625,0.6786346435546875,1.273101806640625,-0.6004781723022461,-0.6207108497619629,-0.6786608695983887
-29.052734375,-23.5137939453125,-11.75689697265625,-0.3822784423828125,3.263824462890625,0.0129241943359375,8.982437133789063,1.1239471435546875,1.799835205078125,-0.6019535064697266,-0.1674199104309082,-0.46849799156188965
-29.53948974609375,-23.2635498046875,-14.36309814453125,-0.37908935546875,3.2137603759765625,0.0938720703125,9.097366333007813,1.542938232421875,2.197265625,-0.40941429138183594,0.26735877990722656,-0.3797879219055176
-29.53643798828125,-23.55499267578125,-13.89617919921875,-0.364166259765625,2.9857940673828125,0.130096435546875,9.43255615234375,1.9092559814453125,2.7694854736328125,0.18486881256103516,0.7324607372283936,-0.0936896800994873
-27.49786376953125,-23.10791015625,-15.77606201171875,-0.333282470703125,2.8813934326171875,0.028900146484375,9.576202392578125,2.08642578125,3.13580322265625,0.2048206329345703,0.9045454263687134,0.04277324676513672
-26.71661376953125,-22.06268310546875,-16.7327880859375,-0.319427490234375,2.8089599609375,-0.1372833251953125,9.4349365234375,2.16064453125,3.40155029296875,0.27475452423095703,0.8759068250656128,-0.03556180000305176
-26.873779296875,-22.967529296875,-16.8609619140625,-0.342864990234375,2.7152252197265625,-0.3524627685546875,9.619293212890625,2.0481109619140625,3.6625213623046875,0.690241813659668,0.5770339965820313,-0.03857231140136719
-26.7303466796875,-23.90899658203125,-19.6014404296875,-0.38653564453125,2.664093017578125,-0.5697784423828125,9.935333251953125,1.52618408203125,3.755889892578125,0.9657917022705078,-0.09418857097625732,-0.2508082389831543
-27.67486572265625,-23.62060546875,-19.44122314453125,-0.3939971923828125,2.6790008544921875,-0.725311279296875,9.9305419921875,0.973114013671875,3.9067230224609375,0.993377685546875,-0.36281800270080566,-0.27514028549194336
-25.006103515625,-23.01177978515625,-21.18072509765625,-0.3343505859375,2.8047027587890625,-0.8584747314453125,9.674362182617188,1.1119842529296875,4.1700897216796875,0.7502279281616211,-0.09379768371582031,-0.32265520095825195
-25.1678466796875,-24.5269775390625,-22.0611572265625,-0.2682952880859375,2.7556915283203125,-0.8914947509765625,9.284103393554688,1.394500732421875,4.229949951171875,0.47266197204589844,-0.0061833858489990234,-0.4801778793334961
-25.49591064453125,-23.6724853515625,-24.53155517578125,-0.2320709228515625,2.61614990234375,-0.8467559814453125,8.80047607421875,1.4423828125,4.5555572509765625,0.09606361389160156,-0.055313706398010254,-0.1996903419494629
-21.87347412109375,-25.28076171875,-25.1556396484375,-0.22674560546875,2.5660858154296875,-0.7519378662109375,8.362335205078125,1.384918212890625,4.99609375,-0.2188100814819336,-0.32120752334594727,-0.043393611907958984
-22.66387939453125,-25.29754638671875,-25.45013427734375,-0.22674560546875,2.6651458740234375,-0.60919189453125,7.790130615234375,1.1431121826171875,5.362396240234375,-0.5883846282958984,-0.5283826589584351,0.02100992202758789
-21.2493896484375,-25.592041015625,-26.3824462890625,-0.206512451171875,2.833465576171875,-0.4046630859375,7.4932403564453125,1.0018463134765625,5.4749298095703125,-0.6222934722900391,-0.6214427947998047,-0.07433414459228516
-19.8333740234375,-25.42572021484375,-26.5594482421875,-0.1873321533203125,2.9527740478515625,-0.1905517578125,7.3136749267578125,1.1885986328125,5.8125152587890625,-0.4999847412109375,-0.2550339698791504,0.07857751846313477
-18.5821533203125,-26.64031982421875,-28.54156494140625,-0.1916046142578125,3.04864501953125,-0.088287353515625,7.356781005859375,1.60040283203125,6.2027740478515625,-0.28878259658813477,0.2889605760574341,0.42004966735839844
-18.90716552734375,-25.323486328125,-30.25665283203125,-0.1681671142578125,3.1775360107421875,-0.0925445556640625,7.495635986328125,1.99066162109375,6.7678070068359375,0.16904592514038086,0.2686234712600708,0.4980201721191406
-16.705322265625,-25.60577392578125,-31.04705810546875,-0.1095733642578125,3.1093597412109375,-0.123443603515625,7.548309326171875,1.7248992919921875,6.8851165771484375,0.19726276397705078,-0.03338944911956787,0.2665996551513672
-16.85943603515625,-26.49688720703125,-30.40924072265625,-0.0190277099609375,3.014556884765625,-0.177764892578125,7.462127685546875,1.42083740234375,6.81329345703125,0.47920942306518555,-0.29528725147247314,-0.13288402557373047
-16.40167236328125,-25.03662109375,-33.2122802734375,0.0512847900390625,2.8984375,-0.236358642578125,7.548309326171875,1.32745361328125,6.566680908203125,0.6802186965942383,-0.2908593416213989,-0.6062455177307129
-14.66827392578125,-26.81427001953125,-33.34503173828125,0.0821685791015625,2.7333221435546875,-0.2885589599609375,7.3400115966796875,1.3705596923828125,6.5068359375,0.46868038177490234,-0.29442834854125977,-0.5034871101379395
-13.56048583984375,-28.28521728515625,-32.55767822265625,0.1439666748046875,2.6438446044921875,-0.350341796875,6.956939697265625,1.3968963623046875,6.882720947265625,0.3617849349975586,-0.30805182456970215,-0.28804779052734375
-14.361572265625,-27.28729248046875,-35.0250244140625,0.2451629638671875,2.5948486328125,-0.32476806640625,6.70794677734375,1.3777313232421875,7.36395263671875,0.2995920181274414,-0.30131351947784424,0.1747751235961914
-12.48016357421875,-27.587890625,-36.73095703125,0.331451416015625,2.7503662109375,-0.2842864990234375,6.332061767578125,1.45196533203125,7.8691253662109375,-0.023145675659179688,-0.42598116397857666,0.029552936553955078
-10.7452392578125,-28.460693359375,-36.57989501953125,0.34210205078125,2.8909912109375,-0.203338623046875,5.127777099609375,1.353790283203125,7.316070556640625,-0.6908178329467773,-0.45989882946014404,-0.5335226058959961
-10.59112548828125,-28.619384765625,-37.19024658203125,0.2430267333984375,2.8952484130859375,-0.08935546875,4.514862060546875,1.4663238525390625,6.9425811767578125,-1.0708470344543457,-0.3746187686920166,-1.0638599395751953
-9.33074951171875,-28.753662109375,-37.35809326171875,0.080047607421875,2.856903076171875,0.00653076171875,4.7614593505859375,1.82305908203125,6.93060302734375,-0.5932025909423828,-0.028014302253723145,-1.2255430221557617
-7.28759765625,-29.6417236328125,-38.43841552734375,-0.117034912109375,2.819610595703125,0.0310211181640625,5.0296173095703125,2.304290771484375,7.0287628173828125,-0.09418010711669922,0.4593522548675537,-1.2724542617797852
-6.01806640625,-29.7454833984375,-36.6119384765625,-0.306640625,2.812164306640625,-0.0467376708984375,5.48211669921875,2.6083526611328125,6.8946990966796875,0.5904321670532227,0.7822026014328003,-1.5468616485595703
-6.34613037109375,-28.14178466796875,-39.1021728515625,-0.4621734619140625,2.7567596435546875,-0.245941162109375,5.64013671875,2.821441650390625,6.9760894775390625,0.9838595390319824,1.0199044942855835,-1.6005077362060547
-3.82537841796875,-29.15496826171875,-39.111328125,-0.5559234619140625,2.6300048828125,-0.555938720703125,5.33367919921875,2.5652618408203125,7.459716796875,0.9109063148498535,0.7862564325332642,-1.2426137924194336
-3.52020263671875,-29.3304443359375,-40.9515380859375,-0.5548553466796875,2.4499664306640625,-0.7860260009765625,4.7087860107421875,1.6722259521484375,7.7637939453125,0.5141477584838867,-0.090110182762146,-1.0521612167358398
-1.9439697265625,-27.3590087890625,-40.869140625,-0.514373779296875,2.1644744873046875,-0.830780029296875,4.00250244140625,1.13592529296875,8.405441284179688,0.018083572387695313,-0.6125775575637817,-0.5084381103515625
-1.312255859375,-28.84674072265625,-40.68756103515625,-0.477081298828125,1.9855194091796875,-0.7988128662109375,3.573944091796875,0.83905029296875,8.87469482421875,-0.21657824516296387,-0.8953667879104614,-0.1250286102294922
0.09918212890625,-27.7984619140625,-41.96014404296875,-0.4185028076171875,1.9375762939453125,-0.669921875,2.7790679931640625,0.9707183837890625,9.317626953125,-0.8236634731292725,-0.7487876415252686,0.2388896942138672
0.09307861328125,-28.5675048828125,-43.1671142578125,-0.342864990234375,2.034515380859375,-0.4675140380859375,2.5635833740234375,1.205352783203125,9.327194213867188,-0.8477444648742676,-0.49812936782836914,0.17237091064453125
1.0498046875,-28.66668701171875,-40.8782958984375,-0.2874755859375,2.2987060546875,-0.2960052490234375,2.5995025634765625,1.504638671875,9.243408203125,-0.6019198894500732,-0.18199312686920166,0.010522842407226563
1.666259765625,-28.55377197265625,-43.6492919921875,-0.286407470703125,2.603363037109375,-0.1383514404296875,2.3528900146484375,1.6363067626953125,8.826812744140625,-0.6118507385253906,-0.029692769050598145,-0.48708057403564453
3.40728759765625,-29.2510986328125,-41.96929931640625,-0.3375396728515625,2.8057708740234375,0.0075836181640625,2.407958984375,1.7368621826171875,8.4820556640625,-0.2990756034851074,0.09972941875457764,-0.9127073287963867
4.50439453125,-27.75726318359375,-43.24798583984375,-0.469635009765625,2.9165496826171875,0.0672454833984375,2.5803375244140625,1.71771240234375,8.388671875,0.1423954963684082,0.12179815769195557,-1.0840978622436523
5.926513671875,-26.22222900390625,-42.2332763671875,-0.7689666748046875,2.7951202392578125,0.132232666015625,2.4366912841796875,1.7608184814453125,8.510772705078125,0.26406121253967285,0.23210394382476807,-1.0346641540527344
8.282470703125,-27.7130126953125,-43.76220703125,-0.9149169921875,2.6800689697265625,0.059783935546875,2.4199371337890625,1.997833251953125,9.217071533203125,0.501054048538208,0.5544372797012329,-0.39497852325439453
6.549072265625,-26.99127197265625,-43.91021728515625,-0.9276885986328125,2.47021484375,-0.0818939208984375,2.3624725341796875,1.77996826171875,9.260162353515625,0.6845628023147583,0.4231429100036621,-0.4088716506958008
10.31951904296875,-25.46844482421875,-45.68634033203125,-0.92449951171875,2.356231689453125,-0.1948089599609375,1.92193603515625,1.801513671875,9.58099365234375,0.4716545343399048,0.5298876762390137,-0.13620281219482422
10.955810546875,-26.0406494140625,-44.6075439453125,-0.8595123291015625,2.4307861328125,-0.2970733642578125,1.505340576171875,1.5501251220703125,9.470855712890625,0.2904616594314575,0.35862982273101807,-0.28844261169433594
11.26861572265625,-25.5950927734375,-45.0836181640625,-0.8051910400390625,2.35302734375,-0.326904296875,0.933135986328125,1.289154052734375,9.178756713867188,-0.04633164405822754,0.17284166812896729,-0.6144733428955078
15.20538330078125,-24.79705810546875,-45.46356201171875,-0.775360107421875,2.081390380859375,-0.34820556640625,0.5069732666015625,0.9228363037109375,9.533096313476563,-0.259368360042572,-0.12025284767150879,-0.2861146926879883
14.72625732421875,-24.822998046875,-46.68426513671875,-0.72955322265625,2.008941650390625,-0.3535308837890625,0.1358642578125,0.8486175537109375,9.88983154296875,-0.4307347536087036,-0.12431257963180542,0.04996967315673828
15.19775390625,-24.37286376953125,-47.00775146484375,-0.71038818359375,2.1527557373046875,-0.271514892578125,0.0903778076171875,0.92523193359375,9.813217163085938,-0.2670987844467163,0.020316779613494873,-0.04290294647216797
16.6229248046875,-23.27880859375,-45.52154541015625,-0.7146453857421875,2.3498382568359375,-0.1809539794921875,0.1238861083984375,0.83905029296875,9.671966552734375,-0.006983950734138489,0.0034443140029907227,-0.1955585479736328
17.572021484375,-23.10333251953125,-44.7723388671875,-0.71783447265625,2.5213470458984375,-0.0968017578125,-0.101165771484375,0.580474853515625,9.573806762695313,0.01221514493227005,-0.18479937314987183,-0.2989072799682617
18.9788818359375,-23.8677978515625,-46.91925048828125,-0.732757568359375,2.54583740234375,0.0203704833984375,-0.7308349609375,0.34344482421875,9.406204223632813,-0.3678681254386902,-0.34998685121536255,-0.4647226333618164
20.404052734375,-24.27520751953125,-45.54901123046875,-0.7817535400390625,2.37646484375,0.13116455078125,-1.2886810302734375,0.4104766845703125,9.530715942382813,-0.6874611377716064,-0.20782554149627686,-0.33257484436035156
21.65985107421875,-21.72088623046875,-46.2432861328125,-0.676300048828125,2.0856475830078125,0.1993408203125,-1.29107666015625,0.1040191650390625,10.134048461914063,-0.42092663049697876,-0.7245105504989624,0.4030275344848633
21.978759765625,-22.308349609375,-45.7733154296875,-0.5431365966796875,2.1325225830078125,0.1790924072265625,-1.3748779296875,-0.358062744140625,10.361495971679688,-0.3730579614639282,-0.7923160195350647,0.504119873046875
22.6104736328125,-21.0906982421875,-45.19805908203125,-0.467498779296875,2.08990478515625,0.1929473876953125,-1.5568389892578125,-0.2814483642578125,10.189117431640625,-0.16546976566314697,-0.7344460487365723,0.2564077377319336
23.7213134765625,-21.8048095703125,-43.96820068359375,-0.4781494140625,1.9791259765625,0.27923583984375,-1.480224609375,-0.3676300048828125,10.011947631835938,-0.15157032012939453,-0.6997683048248291,0.17701244354248047
25.6134033203125,-20.72296142578125,-43.56231689453125,-0.469635009765625,2.0739288330078125,0.3506011962890625,-1.9566650390625,-0.16412353515625,10.009552001953125,-0.5344356298446655,-0.2944619357585907,0.2552804946899414
26.23443603515625,-20.74127197265625,-45.257568359375,-0.4738922119140625,2.250762939453125,0.402801513671875,-2.4019927978515625,0.2189483642578125,9.7509765625,-0.45715296268463135,0.01683679223060608,-0.18707752227783203
26.8768310546875,-20.54595947265625,-42.97027587890625,-0.4898681640625,2.250762939453125,0.3889617919921875,-2.299041748046875,0.127960205078125,9.437332153320313,-0.21921396255493164,-0.1836213767528534,-0.12306022644042969
27.4932861328125,-20.73211669921875,-45.73516845703125,-0.504791259765625,2.20709228515625,0.358062744140625,-2.6509857177734375,0.1710662841796875,9.81561279296875,-0.4742395877838135,0.11000305414199829,0.42970943450927734
30.0201416015625,-20.67413330078125,-44.390869140625,-0.481353759765625,2.1655426025390625,0.3900146484375,-2.8880157470703125,0.3721771240234375,10.210662841796875,-0.21007084846496582,0.19463755190372467,0.7196292877197266
30.029296875,-18.548583984375,-42.75665283203125,-0.447265625,2.192169189453125,0.4198455810546875,-2.6414031982421875,0.3218994140625,10.339950561523438,0.2319660186767578,0.20722126960754395,0.7554931640625
31.75811767578125,-21.54083251953125,-43.77899169921875,-0.4163665771484375,2.2667388916015625,0.3836212158203125,-2.447479248046875,0.3961181640625,10.169967651367188,0.44606828689575195,0.3257043659687042,0.5899438858032227
32.23419189453125,-19.11773681640625,-42.77191162109375,-0.400390625,2.248626708984375,0.2962799072265625,-2.7132415771484375,0.4894866943359375,9.736602783203125,0.29222750663757324,0.4029065668582916,0.18172073364257813
33.33282470703125,-20.16754150390625,-43.68133544921875,-0.375885009765625,2.1793975830078125,0.2227783203125,-3.1848907470703125,0.37457275390625,9.537887573242188,-0.034455299377441406,0.29823216795921326,0.20210838317871094
34.906005859375,-18.804931640625,-44.19708251953125,-0.3045196533203125,2.1431732177734375,0.1492767333984375,-3.555999755859375,0.3769683837890625,9.576202392578125,-0.09238505363464355,0.35251083970069885,0.37630748748779297
34.44671630859375,-19.51751708984375,-41.56646728515625,-0.21929931640625,2.10162353515625,0.10772705078125,-3.783447265625,0.3242950439453125,9.724639892578125,0.09472179412841797,0.24973756074905396,0.712620735168457
35.540771484375,-18.4814453125,-43.29376220703125,-0.1085052490234375,2.196441650390625,0.0661773681640625,-3.6589508056640625,0.12078857421875,9.992782592773438,0.30630970001220703,0.0052797915413975716,0.8965578079223633
36.17401123046875,-18.9117431640625,-42.6788330078125,-0.0286102294921875,2.330657958984375,0.071502685546875,-3.66851806640625,-0.1545562744140625,9.885055541992188,0.534543514251709,-0.21790269017219543,0.683405876159668
40.12603759765625,-19.71893310546875,-40.41290283203125,-0.1756134033203125,2.469146728515625,0.256866455078125,-3.68768310546875,-0.1713104248046875,8.91778564453125,1.0109028816223145,-0.05586579069495201,-0.0062007904052734375
39.01519775390625,-19.00482177734375,-41.6412353515625,-0.2320709228515625,2.354095458984375,0.141815185546875,-3.6182403564453125,0.221343994140625,8.743011474609375,1.009139060974121,0.5743700265884399,-0.004567146301269531
39.01519775390625,-19.00482177734375,-41.6412353515625,-0.2320709228515625,2.354095458984375,0.141815185546875,-3.6182403564453125,0.221343994140625,8.743011474609375,1.009139060974121,0.5743700265884399,-0.004567146301269531
39.6575927734375,-20.46051025390625,-39.46685791015625,-0.159637451171875,2.0995025634765625,-0.0701751708984375,-3.905548095703125,0.803131103515625,8.50360107421875,1.1103777885437012,0.787702202796936,-0.21219444274902344
42.022705078125,-19.37408447265625,-39.21966552734375,-0.11383056640625,1.8694000244140625,-0.2139892578125,-3.7283782958984375,0.5565338134765625,8.295303344726563,1.5129475593566895,0.38675159215927124,-0.1007394790649414
41.55426025390625,-18.316650390625,-38.31939697265625,-0.136199951171875,1.860870361328125,-0.325836181640625,-3.5536041259765625,0.2404937744140625,8.3455810546875,1.753523349761963,0.3020886778831482,-0.02161407470703125
43.28460693359375,-19.80133056640625,-38.92059326171875,-0.1777496337890625,1.95355224609375,-0.39508056640625,-3.6038818359375,0.168670654296875,8.585006713867188,1.857375144958496,0.26397693157196045,0.32041454315185547
